,trial,start_time,rt,correct,time_bar,keyboard_response,new,on_time,expected_rt,time_bar_visible,fact_id,question,answer,alpha,subject
0,1,118820.13440004084,4883.936600002926,False,15000.0,,True,True,inf,True,50,ujuzi,knowledge,0.3,0
1,2,126047.07490000874,1646.066899993457,True,7217.064756936508,knowledge,False,True,2110.032378468254,True,50,ujuzi,knowledge,0.3,0
2,3,132362.35030001262,4523.2601999887265,False,15000.0,,True,True,inf,True,54,degaga,glasses,0.3,0
3,4,139224.719299993,1297.6233000517823,True,6495.2832999710945,glasses,False,True,2082.1416499855472,True,54,degaga,glasses,0.3,0
4,5,144304.73080003867,4968.492799962405,False,15000.0,,True,True,inf,True,22,kazi,work,0.3,0
5,6,151618.75650001457,5675.696899998002,False,15000.0,,True,True,inf,True,43,kiti,chair,0.3,0
6,7,159633.16710002255,6491.951500007417,False,6468.065861636537,,False,False,2568.0329308182686,True,22,kazi,work,0.3,0
7,8,168510.56409999728,3845.6938000163063,True,6935.171546161445,chair,False,True,2635.0857730807224,True,43,kiti,chair,0.3,0
8,9,175891.06029999675,2028.511900047306,True,7784.419122308574,knowledge,False,True,2393.709561154287,True,50,ujuzi,knowledge,0.25117187500000004,0
9,10,182738.11299999943,6411.151200009044,False,15000.0,,True,True,inf,True,28,kichwa,head,0.3,0
10,11,191500.41360000614,1595.3464999911375,True,7193.255615319632,glasses,False,True,2431.127807659816,True,54,degaga,glasses,0.250390625,0
11,12,197214.95719999075,1711.5891000139527,True,6390.945517056675,head,False,True,2529.4727585283376,True,28,kichwa,head,0.3,0
12,13,202277.9087999952,3823.3258000109345,False,15000.0,,True,True,inf,True,26,siri,secret,0.3,0
13,14,208442.60500004748,6873.392499983311,False,15000.0,,True,True,inf,True,65,maliki,king,0.3,0
14,15,217655.06290004123,1729.1820999816991,False,7138.386102061122,song,False,True,2570.193051030561,True,26,siri,secret,0.3,0
15,16,223151.23350004433,2408.5102999815717,True,6412.243819187196,king,False,True,2540.121909593598,True,65,maliki,king,0.3,0
16,17,228983.73890004586,4310.841599944979,False,6480.247236535562,chair,False,True,2574.123618267781,True,22,kazi,work,0.349609375,0
17,18,236545.4166000127,1255.4470000322908,True,6776.966418659112,chair,False,True,2555.983209329556,True,43,kiti,chair,0.250390625,0
18,19,241294.43350003567,6112.719899974763,False,15000.0,,True,True,inf,True,51,chunga,pot,0.3,0
19,20,249756.27200002782,2928.1005999655463,True,6110.582765580523,head,False,True,2389.2913827902617,True,28,kichwa,head,0.349609375,0
20,21,255870.0814000331,3711.1761000123806,True,6067.0534133673455,pot,False,True,2534.0267066836727,True,51,chunga,pot,0.3,0
21,22,262765.96380001865,4948.760400002357,False,15000.0,,True,True,inf,True,34,kioo,mirror,0.3,0
22,23,270062.783500005,3038.166199985426,True,6091.931435488153,work,False,True,2379.9657177440763,True,22,kazi,work,0.39921874999999996,0
23,24,276509.1287000105,1886.8171999929473,True,6987.914106862553,mirror,False,True,2494.9570534312766,True,34,kioo,mirror,0.3,0
24,25,284056.46610003896,1264.004600001499,True,7084.881419749273,secret,False,True,2543.4407098746365,True,26,siri,secret,0.250390625,0
25,26,288987.46350000147,2060.023700003512,True,6411.445998739834,king,False,True,2539.722999369917,True,65,maliki,king,0.250390625,0
26,27,294751.17580004735,1712.5999999698251,True,6095.712363027045,head,False,True,2381.8561815135226,True,28,kichwa,head,0.30000000000000004,0
27,28,300731.9350000471,inf,True,5965.2813512925095,work,False,True,2316.6406756462547,True,22,kazi,work,0.41289062499999996,0
28,29,307445.05440001376,1839.3842999939807,True,5753.388410065259,pot,False,True,2377.1942050326297,True,51,chunga,pot,0.250390625,0
29,30,312493.59150003875,4016.450499999337,False,15000.0,,True,True,inf,True,7,jiwe,stone,0.3,0
30,31,318858.31179999514,5688.457200012635,False,15000.0,,True,True,inf,True,42,chama,society,0.3,0
31,32,326885.9666000353,906.9407999631949,True,6716.124444337296,stone,False,True,2525.562222168648,True,7,jiwe,stone,0.3,0
32,33,331450.1691000187,797.5967000238597,True,7207.189410056738,society,False,True,2438.094705028369,True,42,chama,society,0.3,0
33,34,336465.22890002234,1493.833500018809,True,6955.368819334923,mirror,False,True,2478.6844096674613,True,34,kioo,mirror,0.250390625,0
34,35,341496.0052000242,5699.446699989494,False,15000.0,,True,True,inf,True,56,wimbo,song,0.3,0
35,36,349542.12080000434,1700.9752999874763,True,6116.238512123206,work,False,True,2392.119256061603,True,22,kazi,work,0.4117187499999999,0
36,37,354523.91580003314,inf,False,6252.08633985722,,False,False,2460.04316992861,True,56,wimbo,song,0.3,0
37,38,363253.5727000213,7230.245799990371,False,15000.0,,True,True,inf,True,40,kitanda,bed,0.3,0
38,39,372831.37840003474,5054.537899966817,False,15000.0,,True,True,inf,True,61,lugha,language,0.3,0
39,40,380228.43580000335,1859.8807000089437,True,6276.048568087218,bed,False,True,2638.524284043609,True,40,kitanda,bed,0.3,0
40,41,385243.78910003,695.3809999977238,True,7521.815481796824,language,False,True,2428.907740898412,True,61,lugha,language,0.3,0
41,trial,start_time,rt,correct,time_bar,keyboard_response,new,on_time,expected_rt,time_bar_visible,fact_id,question,answer,alpha,0
42,1,416458.78270000685,5907.691900036298,False,15000,,True,True,inf,False,37,kisu,knife,0.3,0
43,2,424709.73090000916,1173.289800004568,True,15000,knife,False,True,2183.43726160869,False,37,kisu,knife,0.3,0
44,3,430389.7864000173,3345.987699984107,False,15000,,True,True,inf,False,35,tofaa,apple,0.3,0
45,4,436087.706100021,1110.3224999969825,True,15000,apple,False,True,1985.4462120056382,False,35,tofaa,apple,0.3,0
46,5,440535.20630003186,6030.261099978816,False,15000,,True,True,inf,False,24,barua,letter,0.3,0
47,6,448914.16480002226,3764.1885000048205,False,15000,,True,True,inf,False,17,samaki,fish,0.3,0
48,7,455028.0633000075,718.092399998568,True,15000,letter,False,True,2530.212276522512,False,24,barua,letter,0.3,0
49,8,459609.49490003986,825.3724999958649,True,15000,fish,False,True,2335.908511131246,False,17,samaki,fish,0.3,0
50,9,464291.9168000226,5149.793100019451,False,15000,,True,True,inf,False,64,duka,shop,0.3,0
51,10,471787.7751000342,2737.2347000055015,True,15000,knife,False,True,2345.6482957048484,False,37,kisu,knife,0.343359375,0
52,11,478016.90710004186,5310.552099952474,False,15000,letter,False,True,2494.085836102061,False,64,duka,shop,0.3,0
53,12,487629.1363000055,1874.2606000159867,True,15000,apple,False,True,2438.042168388259,False,35,tofaa,apple,0.250390625,0
54,13,492910.88129999116,3792.395700002089,False,15000,,True,True,inf,False,47,ufu,death,0.3,0
55,14,499057.4885000242,3787.1553999721073,False,15000,,True,True,inf,False,23,shukuru,thanks,0.3,0
56,15,505188.75130004017,1244.6980999666266,True,15000,death,False,True,2421.9586135120576,False,47,ufu,death,0.3,0
57,16,510087.13580004405,3060.6682999641635,False,15000,thank you,False,True,2354.7949396244494,False,23,shukuru,thanks,0.3,0
58,17,521497.43149999995,2050.920200010296,True,15000,letter,False,True,2547.204236325551,False,24,barua,letter,0.250390625,0
59,18,526878.0146000208,3210.0152000202797,True,15000,fish,False,True,2575.8217849737002,False,17,samaki,fish,0.349609375,0
60,19,533442.4322000123,1736.1463999841362,True,15000,knife,False,True,2527.257164173427,False,37,kisu,knife,0.29375000000000007,0
61,20,538588.9039000031,1379.345800029114,True,15000,shop,False,True,2485.7117088249947,False,64,duka,shop,0.250390625,0
62,21,543286.9339000317,2293.734000006225,False,15000,,True,True,inf,False,18,baba,father,0.3,0
63,22,547934.9992999923,2421.5338000212796,False,15000,,True,True,inf,False,5,rafiki,friend,0.3,0
64,23,552715.7668000436,794.216999958735,True,15000,father,False,True,2260.366993549538,False,18,baba,father,0.3,0
65,24,558680.651600007,728.0967999831773,True,15000,friend,False,True,2338.7775145737983,False,5,rafiki,friend,0.3,0
66,25,562861.7188000353,1538.4197999956086,True,15000,death,False,True,2458.099603817495,False,47,ufu,death,0.250390625,0
67,26,567858.7241999921,1770.1360000064597,True,15000,thanks,False,True,2465.5012009470456,False,23,shukuru,thanks,0.250390625,0
68,27,573092.3655999941,1754.6474999981,True,15000,fish,False,True,2454.6733821904268,False,17,samaki,fish,0.30000000000000004,0
69,28,578754.727600026,4973.217599967029,False,15000,,True,True,inf,False,41,tumbili,monkey,0.3,0
70,29,586084.7199000418,2666.1406999919564,False,15000,,True,True,inf,False,63,maji,ice,0.3,0
71,30,591099.5875000372,792.8165000048466,True,15000,monkey,False,True,2425.425318439265,False,41,tumbili,monkey,0.3,0
72,31,595546.2300000363,825.1297000097111,True,15000,ice,False,True,2262.402720165585,False,63,maji,ice,0.3,0
73,32,599912.5344000058,1227.2132000070997,True,15000,father,False,True,2339.214294959899,False,18,baba,father,0.250390625,0
74,33,604424.7618000372,6522.785999986809,False,15000,,True,True,inf,False,67,maslahi,interest,0.3,0
75,34,613287.4143000226,inf,True,15000,friend,False,True,2428.5857138972146,False,5,rafiki,friend,0.349609375,0
76,35,619235.0383000448,1377.5402999599464,True,15000,interest,False,True,2544.75501243876,False,67,maslahi,interest,0.3,0
77,36,624549.7359000146,3681.471900024917,False,15000,,True,True,inf,False,72,fasihi,book,0.3,0
78,37,630579.402000003,5061.2903000437655,False,15000,,True,True,inf,False,70,farasi,horse,0.3,0
79,38,637992.2473000479,1388.2850999943912,True,15000,book,False,True,2480.439917210083,False,72,fasihi,book,0.3,0
80,39,642806.428800046,713.6472999700345,True,15000,horse,False,True,2419.3186465940785,False,70,farasi,horse,0.3,0
81,40,648204.8422000371,2448.427199968137,True,15000,monkey,False,True,2451.099869625578,False,41,tumbili,monkey,0.29960937499999996,0
82,41,654653.7506000022,11043.479699990712,False,15000,,False,True,2492.009195384766,False,63,maji,ice,0.349609375,0
83,42,668062.3647000175,1335.2804000023752,True,15000,friend,False,True,2519.434256098604,False,5,rafiki,friend,0.30000000000000004,0
84,43,674026.8320000032,4583.604000043124,True,15000,interest,False,True,2415.6217881657176,False,67,maslahi,interest,0.349609375,0
85,44,683239.7749000229,2304.7264000051655,False,15000,,True,True,inf,False,58,limau,lemon,0.3,0
86,45,687903.2144999946,3476.548200007528,True,15000,book,False,True,2359.003962949558,False,72,fasihi,book,0.349609375,0
87,1,126000.30919996789,5825.362400035374,False,15000,,True,True,inf,False,19,karamu,party,0.3,1
88,2,134168.2359999977,1195.9932000027038,True,15000,party,False,True,2177.731756100829,False,19,karamu,party,0.3,1
89,3,139498.6602999852,7290.689999994356,False,15000,,True,True,inf,False,55,likizo,holidays,0.3,1
90,4,149145.44779999414,894.4711000076495,False,15000,holiday,False,True,2273.853034263562,False,55,likizo,holidays,0.3,1
91,5,154657.9464999959,4578.659799997695,False,15000,,True,True,inf,False,10,kamba,rope,0.3,1
92,6,161588.75299995998,4940.432200033683,False,15000,,True,True,inf,False,70,farasi,horse,0.3,1
93,7,168884.43480001297,inf,True,15000,rope,False,True,2517.835410837293,False,10,kamba,rope,0.3,1
94,8,179546.92499997327,1296.008300036192,True,15000,horse,False,True,2678.365727706273,False,70,farasi,horse,0.3,1
95,9,184894.00999998907,1714.5201999810524,True,15000,party,False,True,2396.5015497789145,False,19,karamu,party,0.250390625,1
96,10,190457.39519997733,7540.360299986787,False,15000,,True,True,inf,False,54,degaga,glasses,0.3,1
97,11,200338.05319998646,1812.6287999912165,True,15000,holidays,False,True,2391.5924640450307,False,55,likizo,holidays,0.250390625,1
98,12,210548.582599964,1613.1258000386879,True,15000,glasses,False,True,2759.8106718833214,False,54,degaga,glasses,0.3,1
99,13,216579.52329999534,4212.088899977971,False,15000,,True,True,inf,False,26,siri,secret,0.3,1
100,14,223142.39950000774,1446.556699986104,True,15000,rope,False,True,2410.71298139299,False,10,kamba,rope,0.250390625,1
101,15,227790.24950001622,1196.827499952633,True,15000,secret,False,True,2364.857682041747,False,26,siri,secret,0.3,1
102,16,233155.7291999925,1279.807000013534,True,15000,horse,False,True,2396.4986175297013,False,70,farasi,horse,0.250390625,1
103,17,238120.11819996405,3171.862700022757,False,15000,,True,True,inf,False,40,kitanda,bed,0.3,1
104,18,243635.2017999743,3321.1834999965504,False,15000,,True,True,inf,False,33,bibi,grandmother,0.3,1
105,19,249315.38429996,1845.0049000093713,True,15000,bed,False,True,2364.0030096713376,False,40,kitanda,bed,0.3,1
106,20,254262.733999989,1049.487499985844,True,15000,grandmother,False,True,2332.028191392701,False,33,bibi,grandmother,0.3,1
107,21,261909.861299966,1495.1442000456154,True,15000,glasses,False,True,2368.6553837580914,False,54,degaga,glasses,0.250390625,1
108,22,267576.13709999714,5477.445999975316,False,15000,,True,True,inf,False,34,kioo,mirror,0.3,1
109,23,275403.36200001184,4307.982800004538,False,15000,,True,True,inf,False,60,duara,wheel,0.3,1
110,24,282066.28939998336,1096.115100022871,True,15000,mirror,False,True,2530.0874057155133,False,34,kioo,mirror,0.3,1
111,25,286947.45719997445,3927.7490000240505,True,15000,wheel,False,True,2383.089692086455,False,60,duara,wheel,0.3,1
112,26,294530.2836999763,1356.1914000310935,True,15000,secret,False,True,2566.5056693673155,False,26,siri,secret,0.250390625,1
113,27,300057.92900000233,1291.6607999941334,True,15000,bed,False,True,2377.4491104427243,False,40,kitanda,bed,0.250390625,1
114,28,304373.4370999737,1245.4417000408284,True,15000,grandmother,False,True,2371.9000907208238,False,33,bibi,grandmother,0.250390625,1
115,29,311253.31050000386,6617.131499981042,False,15000,,True,True,inf,False,44,tunda,fruit,0.3,1
116,30,320218.5491999844,3277.850100013893,False,15000,,True,True,inf,False,47,ufu,death,0.3,1
117,31,325846.00419999333,2158.9592000236735,True,15000,fruit,False,True,2534.8101750270425,False,44,tunda,fruit,0.3,1
118,32,331559.9942000117,1151.794199948199,True,15000,death,False,True,2372.0513658714713,False,47,ufu,death,0.3,1
119,33,336423.68439998245,1359.9684999790043,True,15000,mirror,False,True,2411.225925527476,False,34,kioo,mirror,0.250390625,1
120,34,341638.5777000105,1329.4440999743529,True,15000,wheel,False,True,2425.5674287006645,False,60,duara,wheel,0.250390625,1
121,35,346504.0042999899,3460.092999972403,False,15000,,True,True,inf,False,2,pombe,beer,0.3,1
122,36,352317.3657999723,3440.5008000321686,False,15000,,True,True,inf,False,53,wakati,alarm,0.3,1
123,37,358114.5042999997,1045.348500018008,True,15000,beer,False,True,2386.677229165812,False,2,pombe,beer,0.3,1
124,38,362461.7883999599,945.465300057549,True,15000,alarm,False,True,2303.863800471024,False,53,wakati,alarm,0.3,1
125,39,366911.0585000017,2377.6622000150383,False,15000,,True,True,inf,False,27,basi,bus,0.3,1
126,40,371641.9759999844,4396.306200011168,False,15000,,True,True,inf,False,39,chakula,food,0.3,1
127,41,378388.1870000041,14988.826899963897,False,15000,,False,False,2379.457138789386,False,27,basi,bus,0.3,1
128,42,395799.15969999274,1643.1538999895565,True,15000,food,False,True,2899.644069393374,False,39,chakula,food,0.3,1
129,43,401126.9093999872,1348.8075999775901,True,15000,fruit,False,True,2636.22083723406,False,44,tunda,fruit,0.250390625,1
130,44,405742.4911999842,1029.097200022079,True,15000,death,False,True,2643.8252833885003,False,47,ufu,death,0.250390625,1
131,45,410406.7531999899,1029.5557000208646,True,15000,beer,False,True,2395.4139948925013,False,2,pombe,beer,0.250390625,1
132,trial,start_time,rt,correct,time_bar,keyboard_response,new,on_time,expected_rt,time_bar_visible,fact_id,question,answer,alpha,1
133,1,442248.5943000065,7005.882799974643,False,15000.0,,True,True,inf,True,4,jioni,evening,0.3,1
134,2,451607.5131999678,1525.5739000276662,True,6842.98968364199,evening,False,True,2255.994841820995,True,4,jioni,evening,0.3,1
135,3,457484.5630999771,3102.7618999942206,False,15000.0,,True,True,inf,True,51,chunga,pot,0.3,1
136,4,462932.16289998963,745.7188999978825,True,4924.7649671675845,pot,False,True,1962.8824835837922,True,51,chunga,pot,0.3,1
137,5,466732.5216999743,2367.537100042682,False,15000.0,,True,True,inf,True,5,rafiki,friend,0.3,1
138,6,471444.36229998246,3196.2663999875076,False,15000.0,,True,True,inf,True,32,tabibu,doctor,0.3,1
139,7,476992.73299996275,1128.6528000491671,True,6619.3964212448855,friend,False,True,2310.6982106224427,True,5,rafiki,friend,0.3,1
140,8,481822.8907000157,928.2211999525316,True,6633.252628578292,doctor,False,True,2317.626314289146,True,32,tabibu,doctor,0.3,1
141,9,487373.3674999676,5157.628100016154,False,15000.0,,True,True,inf,True,42,chama,society,0.3,1
142,10,494884.7256000154,7119.935399969108,False,15000.0,,True,True,inf,True,49,kuku,chicken,0.3,1
143,11,504346.2300999672,2386.744700022973,True,7607.883203191831,society,False,True,2638.4416015959155,True,42,chama,society,0.3,1
144,12,510526.38870000374,975.895399984438,True,7494.676735543511,chicken,False,True,2581.8383677717557,True,49,kuku,chicken,0.3,1
145,13,515391.2004000158,1527.9065999784507,True,7426.266845797923,evening,False,True,2547.6334228989617,True,4,jioni,evening,0.250390625,1
146,14,520790.27479997603,1527.5174000416882,True,6054.0000359717915,pot,False,True,2527.5000179858957,True,51,chunga,pot,0.250390625,1
147,15,525237.2077999753,1038.6129000107758,True,6695.879698661751,friend,False,True,2348.9398493308754,True,5,rafiki,friend,0.250390625,1
148,16,529750.0997000025,inf,True,6686.13845070193,doctor,False,True,2344.069225350965,True,32,tabibu,doctor,0.349609375,1
149,17,535016.1055999924,2929.5356000075117,False,15000.0,,True,True,inf,True,30,baskeli,bike,0.3,1
150,18,540295.7481999765,4784.174500033259,False,15000.0,,True,True,inf,True,71,maziwa,milk,0.3,1
151,19,547426.8699999666,1245.8890000125393,True,6189.646055390203,bike,False,True,2428.8230276951017,True,30,baskeli,bike,0.3,1
152,20,551873.0808999971,978.5815000068396,True,6101.77431485487,milk,False,True,2384.887157427435,True,71,maziwa,milk,0.3,1
153,21,556740.1925000013,2160.283699980937,True,7097.3662349044835,society,False,True,2383.1831174522417,True,42,chama,society,0.26835937500000007,1
154,22,562720.099499973,inf,True,7096.4275499601445,chicken,False,True,2382.7137749800722,True,49,kuku,chicken,0.349609375,1
155,23,568950.617399998,5123.236100014765,False,15000.0,,True,True,inf,True,28,kichwa,head,0.3,1
156,24,576446.5580999968,1744.4882999989204,True,6804.194771066646,doctor,False,True,2403.097385533323,True,32,tabibu,doctor,0.30000000000000004,1
157,25,582676.5616000048,1544.8621999821626,True,6320.263164620355,head,False,True,2494.1315823101777,True,28,kichwa,head,0.3,1
158,26,587507.6026999741,4155.049699998926,False,15000.0,,True,True,inf,True,41,tumbili,monkey,0.3,1
159,27,594005.3608000162,14905.641999968793,False,15000.0,,True,True,inf,True,62,dubu,bear,0.3,1
160,28,611264.4551999983,7473.428400000557,False,7771.288113566599,do,False,False,2886.6440567832997,True,41,tumbili,monkey,0.3,1
161,29,621509.1812000028,inf,True,7337.649747435635,bear,False,True,3002.8248737178174,True,62,dubu,bear,0.3,1
162,30,627522.3314000177,1306.5342999761924,True,6721.417727690929,bike,False,True,2694.7088638454643,True,30,baskeli,bike,0.250390625,1
163,31,632018.996800005,1461.994599958416,True,6734.25901028701,milk,False,True,2701.129505143505,True,71,maziwa,milk,0.250390625,1
164,32,637150.5344999605,1044.0709000104107,True,7725.905708767172,chicken,False,True,2697.452854383586,True,49,kuku,chicken,0.30000000000000004,1
165,33,641598.5210000072,1174.49189996114,True,6265.90863362014,head,False,True,2466.95431681007,True,28,kichwa,head,0.250390625,1
166,34,646031.4387999824,4191.869599977508,False,15000.0,,True,True,inf,True,23,shukuru,thanks,0.3,1
167,35,652578.395999968,2826.4111000462435,False,15000.0,,True,True,inf,True,50,ujuzi,knowledge,0.3,1
168,36,657757.8700999729,3276.7008999944665,True,6783.812347286838,thanks,False,True,2392.906173643419,True,23,shukuru,thanks,0.3,1
169,37,666886.5023999824,2245.081100030802,True,8040.2898438357115,knowledge,False,True,2521.6449219178558,True,50,ujuzi,knowledge,0.3,1
170,38,673333.223499998,1445.132399967406,True,6970.091998908209,monkey,False,True,2486.0459994541043,True,41,tumbili,monkey,0.250390625,1
171,39,678397.9808000149,1065.9863999462686,True,6196.15091229217,bear,False,True,2432.075456146085,True,62,dubu,bear,0.283203125,1
172,40,682628.7045999779,2774.347700004,False,15000.0,,True,True,inf,True,69,maumiva,pain,0.3,1
173,41,687760.2545999689,7024.0005000378005,False,15000.0,,True,True,inf,True,63,maji,ice,0.3,1
174,42,697139.1786999884,1569.5152999833226,True,6394.050450619491,pain,False,True,2531.0252253097456,True,69,maumiva,pain,0.3,1
175,43,701920.0909999781,1193.6917999992147,True,6028.426161063704,ice,False,True,2514.713080531852,True,63,maji,ice,0.3,1
176,44,705952.3933000164,13362.375499971677,False,15000.0,,True,True,inf,True,46,kofia,hat,0.3,1
177,1,52126.03390001459,3301.1128999642096,False,15000.0,,True,True,inf,True,32,tabibu,doctor,0.3,10
178,2,57754.11759997951,945.0233000097796,True,5956.444377642639,doctor,False,True,1979.2221888213194,True,32,tabibu,doctor,0.3,10
179,3,62602.36109996913,3696.856700000353,False,15000.0,,True,True,inf,True,3,adui,enemy,0.3,10
180,4,68626.67319999309,776.4341000001878,True,5692.695502231016,enemy,False,True,2013.8477511155077,True,3,adui,enemy,0.3,10
181,5,73074.99329996062,2640.1452000136487,False,15000.0,,True,True,inf,True,26,siri,secret,0.3,10
182,6,78038.73430000385,6788.359900005162,False,15000.0,,True,True,inf,True,42,chama,society,0.3,10
183,7,87154.72990000853,887.8356000059284,True,7019.8942760031705,secret,False,True,2510.9471380015852,True,26,siri,secret,0.3,10
184,8,92177.81729996204,597.9654000257142,True,7358.477561257983,society,False,True,2513.7387806289917,True,42,chama,society,0.3,10
185,9,96971.59629996167,3343.466999998782,False,15000.0,,True,True,inf,True,2,pombe,beer,0.3,10
186,10,102637.77159998426,inf,False,6682.861666041584,,False,False,2342.430833020792,True,32,tabibu,doctor,0.349609375,10
187,11,111735.3340999689,1035.7208999921568,True,6417.273112199866,beer,False,True,2542.636556099933,True,2,pombe,beer,0.3,10
188,12,115614.27749996074,1470.4970000311732,False,6401.033508502942,music,False,True,2368.016754251471,True,3,adui,enemy,0.349609375,10
189,13,120110.75799999526,3220.3199999639764,False,15000.0,,True,True,inf,True,6,afisi,office,0.3,10
190,14,125656.89019998536,2770.1756000169553,False,15000.0,,True,True,inf,True,57,dhoruba,storm,0.3,10
191,15,130753.73329996364,1153.2935000141151,True,6663.82715328725,office,False,True,2332.913576643625,True,6,afisi,office,0.3,10
192,16,135020.0781999738,790.9180000424385,True,6177.524938081399,storm,False,True,2256.2624690406997,True,57,dhoruba,storm,0.3,10
193,17,139099.0725000156,1112.0398999773897,False,6763.808130252733,music,False,True,2382.9040651263663,True,26,siri,secret,0.349609375,10
194,18,143129.07359999372,1785.8835000079125,True,7071.8415549154015,society,False,True,2370.4207774577008,True,42,chama,society,0.250390625,10
195,19,148615.2974999859,4019.665799976792,False,6833.661338172511,musicc,False,True,2417.8306690862555,True,32,tabibu,doctor,0.39921874999999996,10
196,20,156294.19709998183,3452.792300027795,False,6360.213630334119,secret,False,True,2347.6068151670597,True,3,adui,enemy,0.39921874999999996,10
197,21,163013.68859998183,1189.3084000330418,True,6078.264047329657,beer,False,True,2373.1320236648285,True,2,pombe,beer,0.250390625,10
198,22,167244.4029999897,3590.5817999737337,False,15000.0,,True,True,inf,True,19,karamu,party,0.3,10
199,23,173159.22729996964,2747.8369000018574,False,15000.0,,True,True,inf,True,34,kioo,mirror,0.3,10
200,24,178232.36179997912,1082.6105999876745,True,6369.923825287343,party,False,True,2352.4619126436714,True,19,karamu,party,0.3,10
201,25,182765.45479998458,525.4579000174999,True,6540.719274260911,mirror,False,True,2271.3596371304557,True,34,kioo,mirror,0.3,10
202,26,186789.79319997597,2813.0753000150435,False,6927.3891418370295,secret,False,True,2464.6945709185147,True,32,tabibu,doctor,0.4488281249999999,10
203,27,192820.28639997588,1470.4171000048518,True,7034.189909539223,office,False,True,2518.0949547696114,True,6,afisi,office,0.250390625,10
204,28,197522.6325999829,1448.2961000176147,False,6642.479593474899,storm,False,True,2488.7397967374495,True,3,adui,enemy,0.4488281249999999,10
205,29,203135.12359996093,961.6248000529595,True,6857.26769693731,storm,False,True,2596.133848468655,True,57,dhoruba,storm,0.250390625,10
206,30,207128.78869997803,1626.0999999940395,True,7277.559207696986,secret,False,True,2639.779603848493,True,26,siri,secret,0.30000000000000004,10
207,31,212110.27419997845,inf,False,6794.2623397613115,do,False,False,2398.1311698806558,True,32,tabibu,doctor,0.4664062499999999,10
208,32,221292.60929999873,3334.436899982393,False,6400.100654282432,secret,False,True,2367.550327141216,True,3,adui,enemy,0.4765624999999999,10
209,33,228553.22369997157,4137.646400020458,False,6410.843936638949,office,False,True,2372.9219683194747,True,19,karamu,party,0.349609375,10
210,34,236148.71079998557,6906.74130001571,False,6838.337244933892,,False,False,2420.168622466946,True,34,kioo,mirror,0.349609375,10
211,35,245401.03840001393,1817.7902999450453,False,6846.812370452613,party,False,True,2424.4061852263067,True,32,tabibu,doctor,0.49101562499999996,10
212,36,250493.87549998937,6543.256699980702,False,6521.314727696357,,False,False,2428.1573638481786,True,3,adui,enemy,0.5011718749999999,10
213,37,259383.14709998667,4531.719200022053,False,15000.0,,True,True,inf,True,50,ujuzi,knowledge,0.3,10
214,38,266243.8042999711,1718.9847000408918,True,6454.438923885195,doctor,False,True,2228.2194619425977,True,32,tabibu,doctor,0.490625,10
215,39,271100.16339999856,1406.6484000068158,True,7781.803843463631,knowledge,False,True,2392.4019217318155,True,50,ujuzi,knowledge,0.3,10
216,40,276467.9570000153,6472.031999961473,False,6463.427425540444,,False,False,2399.213712770222,True,3,adui,enemy,0.5265624999999999,10
217,41,285286.1879999982,2236.5787000162527,True,6721.103814801263,party,False,True,2528.0519074006315,True,19,karamu,party,0.32499999999999996,10
218,42,290590.8967999858,1619.918600015808,True,7034.377137446494,mirror,False,True,2518.188568723247,True,34,kioo,mirror,0.30000000000000004,10
219,43,296717.91519998806,2056.8027999834158,True,6273.242375742353,enemy,False,True,2304.1211878711765,True,3,adui,enemy,0.526171875,10
220,44,301770.5022000009,1672.2609999706037,False,6612.352531365769,party,False,True,2307.1762656828846,True,32,tabibu,doctor,0.540234375,10
221,45,307261.46820001304,3365.346699953079,False,15000.0,,True,True,inf,True,56,wimbo,song,0.3,10
222,46,312953.58520001173,1766.5605999645777,True,6141.852866861655,doctor,False,True,2071.9264334308273,True,32,tabibu,doctor,0.5398437500000001,10
223,47,318002.74440000067,920.1253000064753,True,6009.056790451643,song,False,True,2338.5283952258214,True,56,wimbo,song,0.3,10
224,48,321843.6104999855,7781.024100026116,False,7747.521190409066,,False,False,2375.260595204533,True,50,ujuzi,knowledge,0.349609375,10
225,49,331970.5804999685,1695.220399997197,False,6564.148567879454,secret,False,True,2449.574283939727,True,3,adui,enemy,0.57578125,10
226,50,337151.8871000153,2586.8322999449447,True,6427.000944632076,doctor,False,True,2214.500472316038,True,32,tabibu,doctor,0.5769531250000001,10
227,51,342776.34619997116,794.3501000409015,True,6029.056689530782,enemy,False,True,2182.028344765391,True,3,adui,enemy,0.575390625,10
228,trial,start_time,rt,correct,time_bar,keyboard_response,new,on_time,expected_rt,time_bar_visible,fact_id,question,answer,alpha,10
229,1,365253.17420001375,3277.494599984493,False,15000,,True,True,inf,False,47,ufu,death,0.3,10
230,2,370856.8189999787,857.8110000235029,True,15000,death,False,True,1977.031343603261,False,47,ufu,death,0.3,10
231,3,374994.761799986,4447.9287000140175,False,15000,,True,True,inf,False,63,maji,ice,0.3,10
232,4,381770.3736000112,984.3572999816388,True,15000,ice,False,True,2075.35233102668,False,63,maji,ice,0.3,10
233,5,385522.17869996093,3024.563000013586,False,15000,,True,True,inf,False,5,rafiki,friend,0.3,10
234,6,390873.240099987,5409.385900013149,False,15000,,True,True,inf,False,24,barua,letter,0.3,10
235,7,398607.2785999859,1215.0480999844149,True,15000,friend,False,True,2462.883426578823,False,5,rafiki,friend,0.3,10
236,8,402795.9404999856,1030.671100015752,True,15000,letter,False,True,2403.3540849144206,False,24,barua,letter,0.3,10
237,9,406915.50629999256,6087.445100012701,False,15000,,True,True,inf,False,13,kanisa,church,0.3,10
238,10,415328.3502999693,3218.2389000081457,False,15000,ice,False,True,2336.516652370395,False,47,ufu,death,0.349609375,10
239,11,421267.3453000025,1415.5613000039011,True,15000,church,False,True,2523.6798778039447,False,13,kanisa,church,0.3,10
240,12,426243.32060001325,4423.29049995169,False,15000,,True,True,inf,False,11,roho,soul,0.3,10
241,13,432994.6108000004,1488.6727000121027,True,15000,ice,False,True,2417.944604079798,False,63,maji,ice,0.250390625,10
242,14,437196.40439999057,894.124299986288,True,15000,soul,False,True,2350.5054272801713,False,11,roho,soul,0.3,10
243,15,441099.3462000042,2847.220700001344,False,15000,,True,True,inf,False,64,duka,shop,0.3,10
244,16,446274.76639999077,3807.8317000181414,False,15000,,True,True,inf,False,8,rangi,color,0.3,10
245,17,452406.78670001216,963.6711999773979,True,15000,shop,False,True,2370.1856476455205,False,64,duka,shop,0.3,10
246,18,456516.6279000114,1765.9397999523208,True,15000,color,False,True,2309.618729094454,False,8,rangi,color,0.3,10
247,19,461558.39389999164,1228.1333999708295,True,15000,friend,False,True,2514.8306534321123,False,5,rafiki,friend,0.250390625,10
248,20,466024.8400999699,2865.659000002779,False,15000,shop,False,True,2523.559730321886,False,24,barua,letter,0.349609375,10
249,21,472715.2087999857,1263.2859000004828,True,15000,death,False,True,2561.1931136578123,False,47,ufu,death,0.30000000000000004,10
250,22,477200.0975999981,6514.3940999987535,True,15000,church,False,True,2430.289688577946,False,13,kanisa,church,0.349609375,10
251,23,487860.6904000044,3149.79559998028,False,15000,song,False,True,2377.5451260843743,False,11,roho,soul,0.349609375,10
252,24,493933.6893999716,3788.8057000236586,False,15000,,True,True,inf,False,25,keja,house,0.3,10
253,25,500048.7157999887,6633.77259997651,False,15000,,True,True,inf,False,31,kijana,boy,0.3,10
254,26,509007.40930001484,1014.7269999724813,True,15000,house,False,True,2556.6600068475013,False,25,keja,house,0.3,10
255,27,512989.45260001346,692.935699946247,True,15000,boy,False,True,2455.696920273005,False,31,kijana,boy,0.3,10
256,28,516769.4562000106,2683.119199995417,False,15000,song,False,True,2539.7462448280153,False,64,duka,shop,0.349609375,10
257,29,523363.66949998774,1118.7609999906272,True,15000,color,False,True,2574.6380147946375,False,8,rangi,color,0.250390625,10
258,30,527733.3138000104,1845.1311999815516,True,15000,letter,False,True,2613.9777330821935,False,24,barua,letter,0.30000000000000004,10
259,31,532607.0560999797,1815.3776000253856,True,15000,church,False,True,2516.0008954024397,False,13,kanisa,church,0.30000000000000004,10
260,32,537794.1186999669,4949.38370003365,True,15000,soul,False,True,2449.3989111395026,False,11,roho,soul,0.39921874999999996,10
261,33,545898.8194999984,3463.8486999901943,False,15000,,True,True,inf,False,27,basi,bus,0.3,10
262,34,551691.2597999908,3351.138899975922,False,15000,,True,True,inf,False,1,jicho,eye,0.3,10
263,35,557369.7987999767,1064.5734000136144,True,15000,bus,False,True,2379.122837492693,False,27,basi,bus,0.3,10
264,36,561339.4160000025,1286.9658999843523,True,15000,eye,False,True,2273.9370460189652,False,1,jicho,eye,0.3,10
265,37,565478.6329999915,2843.7371000181884,True,15000,shop,False,True,2474.051594098823,False,64,duka,shop,0.38749999999999996,10
266,38,571309.510799998,inf,False,15000,ice,False,True,2500.472189099248,False,25,keja,house,0.349609375,10
267,39,586606.6120999749,1051.7364999977872,True,15000,soul,False,True,2614.5057400485343,False,11,roho,soul,0.398828125,10
268,40,590643.892699969,1147.8583000134677,True,15000,boy,False,True,2667.826830024078,False,31,kijana,boy,0.250390625,10
269,41,595066.7869999888,3559.5930999843404,False,15000,,True,True,inf,False,44,tunda,fruit,0.3,10
270,42,600950.9690999985,4923.317799984943,False,15000,,True,True,inf,False,36,bustani,garden,0.3,10
271,43,608199.7019000119,1114.680899947416,True,15000,fruit,False,True,2465.2514545897775,False,44,tunda,fruit,0.3,10
272,44,612322.8698999737,480.8658999972977,True,15000,garden,False,True,2373.7190570773946,False,36,bustani,garden,0.3,10
273,45,616914.8645999958,1127.4138999870047,True,15000,shop,False,True,2531.8452787245064,False,64,duka,shop,0.38398437499999993,10
274,46,621134.5112000126,1081.1138999997638,True,15000,bus,False,True,2532.096157436121,False,27,basi,bus,0.250390625,10
275,47,625090.4370999779,14839.78640002897,False,15000,s,False,False,2544.780928552584,False,1,jicho,eye,0.349609375,10
276,48,642472.0576999825,inf,True,15000,house,False,True,2693.423151795053,False,25,keja,house,0.39921874999999996,10
277,1,127411.74990002764,2743.6303999857046,False,15000,,True,True,inf,False,69,maumiva,pain,0.3,11
278,2,132485.4903999949,917.8952000220306,True,15000,pain,False,True,1927.790371792209,False,69,maumiva,pain,0.3,11
279,3,136242.75869998382,1744.59450005088,False,15000,,True,True,inf,False,29,skati,skirt,0.3,11
280,4,140315.98630000371,1063.3610999793746,True,15000,skirt,False,True,1823.9881965506468,False,29,skati,skirt,0.3,11
281,5,144364.41520001972,3046.94789997302,False,15000,,True,True,inf,False,59,wingu,cloud,0.3,11
282,6,149739.85700000776,3263.5682999971323,False,15000,,True,True,inf,False,26,siri,secret,0.3,11
283,7,155333.59470003052,925.7127000018954,True,15000,cloud,False,True,2351.408936097421,False,59,wingu,cloud,0.3,11
284,8,159242.8656000411,760.4916999698617,True,15000,secret,False,True,2264.9809153085635,False,26,siri,secret,0.3,11
285,9,163273.90000002924,3017.451699997764,False,15000,,True,True,inf,False,9,ajabu,wonder,0.3,11
286,10,168618.03810001584,2617.3444999731146,False,15000,,True,True,inf,False,58,limau,lemon,0.3,11
287,11,173565.4333999846,1005.9525000397116,True,15000,wonder,False,True,2312.5377082651366,False,9,ajabu,wonder,0.3,11
288,12,177460.91040002648,654.4842000002973,True,15000,lemon,False,True,2222.9943402353574,False,58,limau,lemon,0.3,11
289,13,181037.0636000298,1590.2227999758907,True,15000,pain,False,True,2406.6807919932003,False,69,maumiva,pain,0.250390625,11
290,14,186067.0194000122,1176.2647000141442,True,15000,skirt,False,True,2386.784690892881,False,29,skati,skirt,0.250390625,11
291,15,190157.686999999,3725.6667999899946,False,15000,,True,True,inf,False,46,kofia,hat,0.3,11
292,16,196212.38320000703,8422.886800020933,False,15000,,True,True,inf,False,28,kichwa,head,0.3,11
293,17,206963.93160003936,3567.336799984332,False,15000,head,False,True,2631.5310526445496,False,46,kofia,hat,0.3,11
294,18,213945.2128999983,640.417399990838,True,15000,head,False,True,2669.3728788925337,False,28,kichwa,head,0.3,11
295,19,217811.86519999756,1351.3847999856807,True,15000,cloud,False,True,2520.6751769094944,False,59,wingu,cloud,0.250390625,11
296,20,222332.91679999093,1654.2996000498533,True,15000,secret,False,True,2538.4300922475486,False,26,siri,secret,0.250390625,11
297,21,227406.31220000796,1227.9293999890797,True,15000,wonder,False,True,2421.6149879839277,False,9,ajabu,wonder,0.250390625,11
298,22,231782.0362999919,1543.548500048928,True,15000,lemon,False,True,2437.8308391580063,False,58,limau,lemon,0.250390625,11
299,23,236442.65789998462,4392.637700017076,False,15000,,True,True,inf,False,22,kazi,work,0.3,11
300,24,243164.02770002605,3191.194799961522,False,15000,,True,True,inf,False,62,dubu,bear,0.3,11
301,25,248684.77799999528,1295.0536000425927,True,15000,work,False,True,2420.103147244676,False,22,kazi,work,0.3,11
302,26,254060.6623000349,526.5170999919064,True,15000,bear,False,True,2347.3293685329354,False,62,dubu,bear,0.3,11
303,27,257606.23209999176,1932.9486000351608,True,15000,hat,False,True,2362.137060340776,False,46,kofia,hat,0.250390625,11
304,28,262606.5147999907,2908.6886000004597,False,15000,,True,True,inf,False,21,bahari,sea,0.3,11
305,29,267842.47440000763,1648.6227000132203,True,15000,head,False,True,2400.1188476663547,False,28,kichwa,head,0.250390625,11
306,30,272600.643999991,1530.5010000010952,True,15000,sea,False,True,2294.910829157146,False,21,bahari,sea,0.3,11
307,31,276951.38550002594,2707.785699982196,False,15000,,True,True,inf,False,56,wimbo,song,0.3,11
308,32,281987.5041000196,2167.740300006699,False,15000,,True,True,inf,False,41,tumbili,monkey,0.3,11
309,33,286484.4962999923,518.6863000271842,True,15000,song,False,True,2266.8461599838574,False,56,wimbo,song,0.3,11
310,34,289830.48470003996,636.6427999455482,True,15000,monkey,False,True,2155.001829302912,False,41,tumbili,monkey,0.3,11
311,35,293672.78590000933,1978.3716999809258,False,15000,,True,True,inf,False,19,karamu,party,0.3,11
312,36,297981.9158000173,2130.5316999787465,False,15000,hat,False,True,2354.655256839849,False,22,kazi,work,0.349609375,11
313,37,303212.0244000107,1942.873399995733,True,15000,party,False,True,2267.225349938457,False,19,karamu,party,0.3,11
314,38,308532.72260003723,1137.3220999957994,True,15000,bear,False,True,2426.098134955545,False,62,dubu,bear,0.250390625,11
315,39,312611.1876000068,2719.94470001664,False,15000,,True,True,inf,False,70,farasi,horse,0.3,11
316,40,317660.0541000371,4911.130599968601,False,15000,,True,True,inf,False,2,pombe,beer,0.3,11
317,41,324896.15280000726,622.2202000208199,True,15000,horse,False,True,2422.326413704128,False,70,farasi,horse,0.3,11
318,42,328697.8772000293,784.2297999886796,True,15000,beer,False,True,2355.251760281538,False,2,pombe,beer,0.3,11
319,43,332623.79859999055,2267.271900025662,False,15000,party,False,True,2498.854957261183,False,21,bahari,sea,0.349609375,11
320,44,338114.88320003264,3536.109199980274,False,15000,party,False,True,2398.0489106219993,False,56,wimbo,song,0.349609375,11
321,45,344865.91649998445,3857.196800003294,False,15000,party,False,True,2456.218014053607,False,41,tumbili,monkey,0.349609375,11
322,46,351975.66719999304,4099.378100014292,False,15000,song,False,True,2488.003092798264,False,22,kazi,work,0.39921874999999996,11
323,47,361351.4093999984,2475.702000025194,False,15000,song,False,True,2479.740461493089,False,19,karamu,party,0.349609375,11
324,48,368302.4267000146,3540.6428999849595,False,15000,,True,True,inf,False,11,roho,soul,0.3,11
325,49,374169.37479999615,2145.7667000358924,True,15000,sea,False,True,2376.0809608313602,False,21,bahari,sea,0.32499999999999996,11
326,50,379102.322700026,11046.069299976807,False,15000,,False,True,2341.859579743437,False,11,roho,soul,0.3,11
327,51,392483.9812000282,3967.058199981693,False,15000,,False,True,2569.1561394231885,False,70,farasi,horse,0.349609375,11
328,52,398787.34209999675,3071.624000032898,False,15000,song,False,True,2597.7341071560595,False,22,kazi,work,0.4488281249999999,11
329,53,404776.6152000404,inf,True,15000,beer,False,True,2665.268992838062,False,2,pombe,beer,0.349609375,11
330,54,411163.02000003634,inf,True,15000,song,False,True,2713.5011241717843,False,56,wimbo,song,0.39921874999999996,11
331,55,420908.16190000623,1446.5115999919362,True,15000,monkey,False,True,2765.675884048076,False,41,tumbili,monkey,0.30000000000000004,11
332,trial,start_time,rt,correct,time_bar,keyboard_response,new,on_time,expected_rt,time_bar_visible,fact_id,question,answer,alpha,11
333,1,436237.73990001064,2621.192599995993,False,15000.0,,True,True,inf,True,25,keja,house,0.3,11
334,2,441186.44379999023,1136.5466000279412,True,5496.301159033081,house,False,True,1915.6505795165406,True,25,keja,house,0.3,11
335,3,445350.53240001434,6380.351800005883,False,15000.0,,True,True,inf,True,14,saduku,box,0.3,11
336,4,454053.4258999978,1637.4334000283852,True,5426.6224780614375,box,False,True,2213.8112390307188,True,14,saduku,box,0.3,11
337,5,458580.76620002976,11358.146099955775,False,15000.0,,True,True,inf,True,68,elimu,science,0.3,11
338,6,472266.1331000272,5040.697199990973,False,15000.0,,True,True,inf,True,44,tunda,fruit,0.3,11
339,7,479629.3322999845,525.4936000565067,True,7919.807545021861,science,False,True,2794.4037725109306,True,68,elimu,science,0.3,11
340,8,484629.36850002734,1688.6797999613918,True,6517.747884305133,fruit,False,True,2426.3739421525665,True,44,tunda,fruit,0.3,11
341,9,489659.27210001973,1689.1772999661043,True,6480.989489393506,house,False,True,2407.994744696753,True,25,keja,house,0.250390625,11
342,10,494526.9508000347,11851.865599979647,False,15000.0,,True,True,inf,True,37,kisu,knife,0.3,11
343,11,508703.8684000145,1082.9178999993019,True,5885.389733632809,box,False,True,2443.1948668164046,True,14,saduku,box,0.250390625,11
344,12,512556.11110001337,1078.65480001783,False,7027.364648016624,house,False,True,2681.182324008312,True,37,kisu,knife,0.3,11
345,13,519835.5360000278,4191.268800001126,False,15000.0,,True,True,inf,True,24,barua,letter,0.3,11
346,14,526350.1666000229,4916.589299973566,False,15000.0,,True,True,inf,True,10,kamba,rope,0.3,11
347,15,533593.8747000182,712.987000006251,True,6989.367613843156,letter,False,True,2495.683806921578,True,24,barua,letter,0.3,11
348,16,538016.9112000149,597.542000003159,True,6111.4092817705105,rope,False,True,2389.7046408852552,True,10,kamba,rope,0.3,11
349,17,542477.0654999884,5349.616400024388,False,7322.3155657718835,knife,False,True,2495.6577828859417,True,68,elimu,science,0.349609375,11
350,18,550943.8036000356,1397.6694999728352,True,6775.134369355024,fruit,False,True,2555.067184677512,True,44,tunda,fruit,0.250390625,11
351,19,555331.4668000094,6159.258100029547,False,15000.0,,True,True,inf,True,4,jioni,evening,0.3,11
352,20,563816.5447000065,1033.9554999954998,True,6402.003147047294,knife,False,True,2368.501573523647,True,37,kisu,knife,0.250390625,11
353,21,567932.1319999872,2518.517900025472,True,7208.086538182275,evening,False,True,2438.5432690911375,True,4,jioni,evening,0.3,11
354,22,573889.1925000353,4257.5214999960735,False,15000.0,,True,True,inf,True,34,kioo,mirror,0.3,11
355,23,580470.8264000365,8731.870599964168,False,15000.0,,True,True,inf,True,66,dunia,world,0.3,11
356,24,591525.6526999874,1543.3060000068508,True,7329.005167969479,mirror,False,True,2665.5025839847394,True,34,kioo,mirror,0.3,11
357,25,596356.3645000104,2534.2843999969773,True,6849.907463771147,world,False,True,2592.4537318855737,True,66,dunia,world,0.3,11
358,26,602276.6386999865,4678.038900019601,False,7144.800410394877,sea,False,True,2573.4002051974385,True,24,barua,letter,0.349609375,11
359,27,610561.6953999852,3097.122400009539,True,7629.43637824146,science,False,True,2649.21818912073,True,68,elimu,science,0.38749999999999996,11
360,28,617301.4297999907,2453.1857999973,False,6716.235251051747,house,False,True,2692.1176255258733,True,10,kamba,rope,0.349609375,11
361,29,623094.8074000189,2971.920699987095,True,7184.6508798322575,evening,False,True,2426.8254399161287,True,4,jioni,evening,0.349609375,11
362,30,629537.7156999893,6992.946000013035,False,15000.0,,True,True,inf,True,13,kanisa,church,0.3,11
363,31,638858.8824000326,6647.706399962772,False,15000.0,,True,True,inf,True,17,samaki,fish,0.3,11
364,32,647835.8731000335,966.713499976322,True,7381.570769060364,church,False,True,2691.785384530182,True,13,kanisa,church,0.3,11
365,33,652797.8012000094,961.4790999912657,True,6340.579959537361,fish,False,True,2504.2899797686805,True,17,samaki,fish,0.3,11
366,34,656774.0772000398,4964.45509995101,False,7085.057876260198,house,False,True,2543.528938130099,True,24,barua,letter,0.39921874999999996,11
367,35,665124.9184000189,961.5342000033706,True,7545.1491487387375,science,False,True,2607.0745743693687,True,68,elimu,science,0.38554687499999996,11
368,36,669440.4259999865,1274.1473000496626,True,7298.526225618666,mirror,False,True,2650.263112809333,True,34,kioo,mirror,0.250390625,11
369,37,673907.1885999874,5343.343300046399,False,6970.495832113263,,False,True,2652.7479160566313,True,66,dunia,world,0.349609375,11
370,38,681579.6606999938,4782.8723000129685,False,6698.2415372326595,box,False,True,2683.1207686163298,True,10,kamba,rope,0.38749999999999996,11
371,39,689628.2285000198,1252.5418999721296,True,7609.4979380233735,evening,False,True,2639.2489690116868,True,4,jioni,evening,0.31562500000000004,11
372,40,694301.280500018,2381.277200009208,True,6962.505246686876,letter,False,True,2482.252623343438,True,24,barua,letter,0.398828125,11
373,41,700064.7667000303,1865.7224999624304,False,6757.779478564006,house,False,True,2379.889739282003,True,13,kanisa,church,0.349609375,11
374,42,706500.4088000278,1694.0861999755725,True,6141.575670074502,fish,False,True,2404.787835037251,True,17,samaki,fish,0.250390625,11
375,43,711090.31530004,3729.6123999985866,True,6363.286935431833,world,False,True,2349.1434677159164,True,66,dunia,world,0.38828125,11
376,44,717864.5540000289,1881.9325999938883,True,6129.884807107225,rope,False,True,2398.9424035536126,True,10,kamba,rope,0.38398437499999993,11
377,1,136595.2033000067,5208.0929999938235,False,15000.0,,True,True,inf,True,39,chakula,food,0.3,12
378,2,144130.36199996714,1080.934800032992,True,5597.70672884033,food,False,True,2132.853364420165,True,39,chakula,food,0.3,12
379,3,148657.3597000097,3385.9206999768503,False,15000.0,,True,True,inf,True,14,saduku,box,0.3,12
380,4,154366.65260000154,500.67649997072294,True,4971.909532856852,box,False,True,1986.454766428426,True,14,saduku,box,0.3,12
381,5,158826.70129998587,3424.5835000183433,False,15000.0,,True,True,inf,True,31,kijana,boy,0.3,12
382,6,164578.38129997253,5192.853800021112,False,15000.0,,True,True,inf,True,17,samaki,fish,0.3,12
383,7,172099.3267999729,1495.9905000287108,True,5943.272387112349,boy,False,True,2472.1361935561745,True,31,kijana,boy,0.3,12
384,8,178573.9162999671,1323.7508999882266,True,6345.944285863151,fish,False,True,2506.9721429315755,True,17,samaki,fish,0.3,12
385,9,183372.71109997528,3926.493400009349,False,15000.0,,True,True,inf,True,7,jiwe,stone,0.3,12
386,10,189626.65099999867,6030.018499994185,False,5990.146066821613,,False,False,2329.0730334108066,True,39,chakula,food,0.349609375,12
387,11,198002.6112999767,2997.955900034867,False,6738.036115738493,fish,False,True,2536.5180578692466,True,7,jiwe,stone,0.3,12
388,12,203942.1391999931,2940.9801000147127,False,5819.3655499815295,food,False,True,2410.1827749907648,True,14,saduku,box,0.349609375,12
389,13,209826.21779997135,48208.903199993074,False,15000.0,,True,True,inf,True,8,rangi,color,0.3,12
390,14,260365.71280000499,3629.3279999517836,False,6528.159267128436,fish,False,True,2764.579633564218,True,31,kijana,boy,0.349609375,12
391,15,267305.3635999677,2449.673500028439,True,9008.46468215038,color,False,True,3671.7323410751897,True,8,rangi,color,0.3,12
392,16,273123.3753999695,3663.6149000260048,True,6970.598017911537,food,False,True,2819.2990089557684,True,39,chakula,food,0.39921874999999996,12
393,17,280226.6879999661,1704.3131000245921,True,7079.332401078162,fish,False,True,2873.666200539081,True,17,samaki,fish,0.250390625,12
394,18,285341.4508999558,2213.5748000000603,False,6661.71260920715,boy,False,True,2831.356304603575,True,14,saduku,box,0.39921874999999996,12
395,19,292844.5476999623,1374.4983000215143,False,7291.510174126498,boy,False,True,2813.255087063249,True,7,jiwe,stone,0.349609375,12
396,20,297862.44279996026,2588.544500002172,True,6035.143607928253,food,False,True,2351.5718039641265,True,39,chakula,food,0.423828125,12
397,21,303813.79919999745,2197.9028999921866,True,5932.4286575465985,boy,False,True,2466.7143287732993,True,31,kijana,boy,0.32499999999999996,12
398,22,309347.5408999948,3507.0623999927193,False,5680.961065563893,food,False,True,2340.9805327819463,True,14,saduku,box,0.425390625,12
399,23,315796.19129997445,1038.9387999894097,True,6423.768724881817,color,False,True,2379.3843624409087,True,8,rangi,color,0.250390625,12
400,24,320001.9316999824,11961.055900028441,False,15000.0,,True,True,inf,True,37,kisu,knife,0.3,12
401,25,334286.6347999661,3164.319500036072,False,6571.3281257289045,box,False,True,2453.1640628644523,True,7,jiwe,stone,0.39921874999999996,12
402,26,340765.0009999634,2237.9097000230104,False,7233.410394543796,fish,False,True,2784.205197271898,True,37,kisu,knife,0.3,12
403,27,346395.4330999986,1295.4932000138797,True,6438.534335112985,food,False,True,2553.2671675564925,True,39,chakula,food,0.41171875,12
404,28,350728.7958000088,4016.5169999818318,False,5936.552873073056,stone,False,True,2468.776436536528,True,14,saduku,box,0.42656250000000007,12
405,29,357953.0503999558,11433.862400008366,False,15000.0,,True,True,inf,True,56,wimbo,song,0.3,12
406,30,371715.17559996573,1835.8462000032887,False,6583.729585582179,boy,False,True,2459.3647927910897,True,7,jiwe,stone,0.4488281249999999,12
407,31,377892.6199999987,1950.2476999768987,True,6840.454048183485,song,False,True,2754.2270240917424,True,56,wimbo,song,0.3,12
408,32,382995.1921000029,3151.6990999807604,False,15000.0,,True,True,inf,True,41,tumbili,monkey,0.3,12
409,33,388473.7229999737,1616.7312000179663,True,6004.187361974791,stone,False,True,2169.5936809873956,True,7,jiwe,stone,0.44843749999999993,12
410,34,393534.34469999047,1284.4767000060529,True,6651.887604203437,monkey,False,True,2326.9438021017186,True,41,tumbili,monkey,0.3,12
411,35,398504.84740000684,3221.412299957592,False,6547.416802742375,fish,False,True,2441.2084013711874,True,37,kisu,knife,0.349609375,12
412,36,404692.4013000098,2950.373599946033,False,5858.748481058459,stone,False,True,2429.8742405292296,True,14,saduku,box,0.42851562500000007,12
413,37,410747.3658999661,2535.6188000296243,False,15000.0,,True,True,inf,True,71,maziwa,milk,0.3,12
414,38,415607.6948000118,1955.1291999523528,True,6215.76818567752,food,False,True,2441.88409283876,True,39,chakula,food,0.410546875,12
415,39,420619.44239999866,5974.894499988295,False,5907.141104476337,,False,False,2287.5705522381686,True,71,maziwa,milk,0.3,12
416,40,428941.0846999963,3309.67479996616,True,6061.94831342448,song,False,True,2364.97415671224,True,56,wimbo,song,0.349609375,12
417,trial,start_time,rt,correct,time_bar,keyboard_response,new,on_time,expected_rt,time_bar_visible,fact_id,question,answer,alpha,12
418,1,477597.11719996994,4085.588000016287,False,15000,,True,True,inf,False,34,kioo,mirror,0.3,12
419,2,484008.7304000044,881.9753999705426,True,15000,mirror,False,True,2046.18476301834,False,34,kioo,mirror,0.3,12
420,3,487958.42509996146,15956.289900001138,False,15000,,True,True,inf,False,52,lango,door,0.3,12
421,4,506236.98749998584,997.6739999838173,True,15000,door,False,True,2691.0167069471604,False,52,lango,door,0.3,12
422,5,510340.0205000071,10350.64889997011,False,15000,,True,True,inf,False,48,chapati,bread,0.3,12
423,6,523019.4276999682,3327.2292999899946,False,15000,,True,True,inf,False,33,bibi,grandmother,0.3,12
424,7,528673.5756999697,2149.2132000275888,True,15000,bread,False,True,2693.1725189427284,False,48,chapati,bread,0.3,12
425,8,534184.5812000101,1026.0369000025094,True,15000,grandmother,False,True,2362.335936362329,False,33,bibi,grandmother,0.3,12
426,9,539151.8847999978,1683.2458999706432,True,15000,mirror,False,True,2475.4174714173964,False,34,kioo,mirror,0.250390625,12
427,10,543776.5778999892,4250.151399988681,False,15000,,True,True,inf,False,69,maumiva,pain,0.3,12
428,11,550352.2832999588,2330.340000044089,False,15000,,True,True,inf,False,27,basi,bus,0.3,12
429,12,555006.6069999593,2651.9089000066742,True,15000,pain,False,True,2365.92363648936,False,69,maumiva,pain,0.3,12
430,13,560546.4346999652,2112.0976000092924,True,15000,bus,False,True,2306.8056902424896,False,27,basi,bus,0.3,12
431,14,565376.1783000082,1682.7002999489196,True,15000,door,False,True,2458.9883800290313,False,52,lango,door,0.250390625,12
432,15,569988.2750000106,6358.332499978133,False,15000,,True,True,inf,False,36,bustani,garden,0.3,12
433,16,578672.9231000063,4129.652999981772,False,15000,,True,True,inf,False,13,kanisa,church,0.3,12
434,17,585128.1676999643,1082.4342000414617,True,15000,garden,False,True,2559.6274357088964,False,36,bustani,garden,0.3,12
435,18,589721.2858999847,977.2593000088818,True,15000,church,False,True,2355.8403138724498,False,13,kanisa,church,0.3,12
436,19,594128.0650999979,1955.2924999734387,True,15000,bread,False,True,2526.3055403759427,False,48,chapati,bread,0.250390625,12
437,20,599085.2002999745,1189.3442000146024,True,15000,grandmother,False,True,2546.610421055579,False,33,bibi,grandmother,0.250390625,12
438,21,604909.3293999904,1616.0211999667808,True,15000,pain,False,True,2366.3953037272076,False,69,maumiva,pain,0.250390625,12
439,22,609327.7131000068,1434.8043999634683,True,15000,bus,False,True,2356.4938818203323,False,27,basi,bus,0.250390625,12
440,23,613509.6730999649,7148.863800044637,False,15000,,True,True,inf,False,67,maslahi,interest,0.3,12
441,24,622982.3134999606,5060.18780003069,False,15000,,True,True,inf,False,45,chanjo,scissors,0.3,12
442,25,630369.6875000023,2992.7821999881417,True,15000,interest,False,True,2633.7663972806336,False,67,maslahi,interest,0.3,12
443,26,637230.4922000039,892.0026999549009,True,15000,scissors,False,True,2518.849296088575,False,45,chanjo,scissors,0.3,12
444,27,645466.7955999612,14999.47640002938,False,15000,,False,False,2478.5921577160034,False,36,bustani,garden,0.349609375,12
445,28,662811.8959999993,3749.7151999850757,False,15000,knife,False,True,2634.823243355757,False,13,kanisa,church,0.349609375,12
446,29,669432.2471999913,3914.2143999924883,False,15000,,True,True,inf,False,49,kuku,chicken,0.3,12
447,30,675672.2839999711,1930.1593999844044,False,15000,,True,True,inf,False,11,roho,soul,0.3,12
448,31,679927.3056999664,1051.1599000310525,True,15000,chicken,False,True,2324.3959468384196,False,49,kuku,chicken,0.3,12
449,32,684278.8377999677,882.749899988994,True,15000,soul,False,True,2207.430779345972,False,11,roho,soul,0.3,12
450,33,688448.9097999758,3548.681700020097,True,15000,interest,False,True,2449.399858542439,False,67,maslahi,interest,0.349609375,12
451,34,695115.0467999978,1548.9995999960229,True,15000,garden,False,True,2460.419424506152,False,36,bustani,garden,0.30000000000000004,12
452,35,699782.0789999678,2220.303000009153,False,15000,chicken,False,True,2505.878920938273,False,45,chanjo,scissors,0.349609375,12
453,36,705212.5112999929,1015.6980999745429,False,15000,chicken,False,True,2421.272980927749,False,13,kanisa,church,0.39374999999999993,12
454,37,709357.6183000114,5084.795999980997,False,15000,,True,True,inf,False,2,pombe,beer,0.3,12
455,38,716769.6464000037,4504.674799973145,False,15000,,True,True,inf,False,53,wakati,alarm,0.3,12
456,39,723599.8073999654,986.5210000425577,True,15000,beer,False,True,2518.5694292493313,False,2,pombe,beer,0.3,12
457,40,728617.6435999805,549.8215000261553,True,15000,alarm,False,True,2399.39173377878,False,53,wakati,alarm,0.3,12
458,41,732492.1077999752,2302.2180999978445,True,15000,chicken,False,True,2404.29808263051,False,49,kuku,chicken,0.27460937500000004,12
459,1,106347.53500000807,3663.169499952346,False,15000,,True,True,inf,False,14,saduku,box,0.3,13
460,2,112342.5256999908,916.110199992545,True,15000,box,False,True,2011.3409956297837,False,14,saduku,box,0.3,13
461,3,116461.86079998733,4644.850099983159,False,15000,,True,True,inf,False,38,tumaini,hope,0.3,13
462,4,123433.12679999508,857.4855999904685,True,15000,hope,False,True,2090.5790392522563,False,38,tumaini,hope,0.3,13
463,5,127918.11979998602,4204.512699972838,False,15000,,True,True,inf,False,49,kuku,chicken,0.3,13
464,6,134449.7018000111,4664.885699981824,False,15000,,True,True,inf,False,68,elimu,science,0.3,13
465,7,141444.14659996983,1110.4711000225507,True,15000,chicken,False,True,2484.4950908797805,False,49,kuku,chicken,0.3,13
466,8,147740.69419997977,1015.8187000197358,True,15000,science,False,True,2473.037509589432,False,68,elimu,science,0.3,13
467,9,152710.48089995747,2764.2753000254743,False,15000,,True,True,inf,False,47,ufu,death,0.3,13
468,10,157801.40999995638,1441.106500045862,True,15000,box,False,True,2345.7948282191815,False,14,saduku,box,0.250390625,13
469,11,162662.16539999004,1052.4305999861099,True,15000,death,False,True,2292.3653480445114,False,47,ufu,death,0.3,13
470,12,167486.22779996367,2932.4033000157215,False,15000,,True,True,inf,False,65,maliki,king,0.3,13
471,13,172746.62809999427,1879.9089000094682,False,15000,science,False,True,2389.204424160238,False,38,tumaini,hope,0.349609375,13
472,14,178370.75339996954,1135.929899988696,True,15000,king,False,True,2346.6465680004576,False,65,maliki,king,0.3,13
473,15,182934.47609996656,4676.136800029781,False,15000,,True,True,inf,False,31,kijana,boy,0.3,13
474,16,189940.3627999709,6774.211300013121,False,15000,,True,True,inf,False,71,maziwa,milk,0.3,13
475,17,199043.47139998572,2108.2911000121385,True,15000,boy,False,True,2602.08066067706,False,31,kijana,boy,0.3,13
476,18,204988.93940000562,1285.5374999926426,True,15000,milk,False,True,2555.530099237274,False,71,maziwa,milk,0.3,13
477,19,209995.0613999972,8527.34769997187,False,15000,box,False,True,2573.0701766700604,False,49,kuku,chicken,0.349609375,13
478,20,221840.05219995743,1410.353200044483,True,15000,science,False,True,2630.8662608289274,False,68,elimu,science,0.250390625,13
479,21,226988.78999997396,4670.478700019885,True,15000,death,False,True,2548.846834591198,False,47,ufu,death,0.349609375,13
480,22,235442.9078999674,1380.4270999971777,False,15000,science,False,True,2620.542990992452,False,38,tumaini,hope,0.39921874999999996,13
481,23,240625.3554999712,1112.9868000280112,False,15000,science,False,True,2518.666689791255,False,65,maliki,king,0.349609375,13
482,24,245474.12249998888,4784.326299966779,False,15000,,True,True,inf,False,67,maslahi,interest,0.3,13
483,25,252588.451299991,5785.679699969478,False,15000,science,False,True,2402.0826803276072,False,49,kuku,chicken,0.39921874999999996,13
484,26,261655.35329998238,3779.109499999322,False,15000,milk,False,True,2605.17269001259,False,67,maslahi,interest,0.3,13
485,27,268630.7762999786,3131.6721999901347,False,15000,science,False,True,2573.9788173138395,False,31,kijana,boy,0.349609375,13
486,28,274958.42899999116,1771.904999972321,False,15000,science,False,True,2547.7258643461973,False,38,tumaini,hope,0.43867187499999993,13
487,29,279951.98159996653,2276.6304000397213,True,15000,milk,False,True,2631.1770832497873,False,71,maziwa,milk,0.262109375,13
488,30,285315.3808999923,5638.909699977376,False,15000,boy,False,True,2591.1022409452667,False,47,ufu,death,0.39921874999999996,13
489,31,295455.03189996816,1211.4212000160478,False,15000,boy,False,True,2516.464899542769,False,49,kuku,chicken,0.39960937499999993,13
490,32,299849.61239999393,1384.6699999994598,True,15000,king,False,True,2589.9852811578885,False,65,maliki,king,0.30000000000000004,13
491,33,304285.12139996747,4229.1399000096135,True,15000,hope,False,True,2424.3418866364655,False,38,tumaini,hope,0.43984375,13
492,34,312055.0436999765,2531.920599984005,False,15000,scienceplus,False,True,2408.9253856388286,False,31,kijana,boy,0.3984375,13
493,35,317818.75039997976,8295.502600027248,True,15000,death,False,True,2420.4750710108665,False,47,ufu,death,0.43632812499999996,13
494,36,329691.0932000028,4943.124899989925,False,15000,hope,False,True,2557.944582466615,False,67,maslahi,interest,0.349609375,13
495,37,340078.9115999942,2619.298000005074,False,15000,,True,True,inf,False,69,maumiva,pain,0.3,13
496,38,345024.49579996755,1507.4041000334546,True,15000,death,False,True,2317.7916285105953,False,47,ufu,death,0.4117187499999999,13
497,39,350781.60379995825,1412.7541000489146,False,15000,interest,False,True,2336.3288334254175,False,69,maumiva,pain,0.3,13
498,40,356206.0293999966,3972.1683000097983,True,15000,boy,False,True,2525.851837876831,False,31,kijana,boy,0.398828125,13
499,41,363593.71960000135,2852.7340999571607,False,15000,interest,False,True,2569.7272568517515,False,38,tumaini,hope,0.48945312499999993,13
500,42,370539.3058999907,2094.870999979321,True,15000,chicken,False,True,2565.156864558599,False,49,kuku,chicken,0.39921874999999996,13
501,43,376370.24580000434,2711.8509999709204,False,15000,milk,False,True,2444.4820425517282,False,67,maslahi,interest,0.39921874999999996,13
502,44,382205.6859000004,12172.568599984515,True,15000,hope,False,True,2343.358503310123,False,38,tumaini,hope,0.50234375,13
503,45,397571.2177999667,3006.9342000060715,False,15000,,True,True,inf,False,33,bibi,grandmother,0.3,13
504,trial,start_time,rt,correct,time_bar,keyboard_response,new,on_time,expected_rt,time_bar_visible,fact_id,question,answer,alpha,13
505,1,405788.5030999896,4613.697199965827,False,15000.0,,True,True,inf,True,62,dubu,bear,0.3,13
506,2,412726.77810001187,1139.3615999841131,True,5508.065364917951,bear,False,True,2088.0326824589756,True,62,dubu,bear,0.3,13
507,3,417479.0307999938,2979.12550001638,False,15000.0,,True,True,inf,True,15,askari,police,0.3,13
508,4,422781.70110000065,1108.3804999943823,True,5896.970129253867,police,False,True,1949.485064626933,True,15,askari,police,0.3,13
509,5,427363.8088000007,7830.280800000764,False,15000.0,,True,True,inf,True,61,lugha,language,0.3,13
510,6,437521.3247999782,3976.749000023119,False,15000.0,,True,True,inf,True,46,kofia,hat,0.3,13
511,7,443823.89599998714,1058.1245999783278,True,7898.0384736082515,language,False,True,2617.0192368041257,True,61,lugha,language,0.3,13
512,8,449163.04839996155,966.9985999935307,True,5775.718258852737,hat,False,True,2388.3591294263683,True,46,kofia,hat,0.3,13
513,9,453260.32329996815,3733.782700030133,False,15000.0,,True,True,inf,True,35,tofaa,apple,0.3,13
514,10,459323.3754999819,4165.333200013265,False,6033.9370674928505,pain,False,True,2350.9685337464252,True,62,dubu,bear,0.349609375,13
515,11,466490.7091999776,6611.56829999527,False,6605.12011691347,,False,False,2470.060058456735,True,35,tofaa,apple,0.3,13
516,12,475447.78349995613,978.2436000532471,True,6919.585513436065,police,False,True,2460.7927567180327,True,15,askari,police,0.250390625,13
517,13,479842.3802999896,2119.6147999726236,False,15000.0,,True,True,inf,True,6,afisi,office,0.3,13
518,14,484290.6173999654,4087.3835000093095,False,15000.0,,True,True,inf,True,59,wingu,cloud,0.3,13
519,15,490702.85709999735,1283.1523999921046,True,6688.577858998387,office,False,True,2345.2889294991933,True,6,afisi,office,0.3,13
520,16,495321.2968999869,848.6764999688603,True,6374.705253194151,cloud,False,True,2354.8526265970754,True,59,wingu,cloud,0.3,13
521,17,500460.42969997507,2029.5427999808453,True,7531.433369740203,language,False,True,2433.7166848701013,True,61,lugha,language,0.250390625,13
522,18,506375.74320001295,1050.3046999801882,True,5910.214689141305,hat,False,True,2455.6073445706525,True,46,kofia,hat,0.250390625,13
523,19,510363.4180999943,1254.523399984464,True,6283.786930484314,bear,False,True,2475.893465242157,True,62,dubu,bear,0.30000000000000004,13
524,20,514902.7004999807,2707.30970002478,False,15000.0,,True,True,inf,True,7,jiwe,stone,0.3,13
525,21,519933.478299994,5548.688000009861,False,6472.432422495213,clod,False,True,2403.7162112476067,True,35,tofaa,apple,0.349609375,13
526,22,528484.205899993,1189.716499997303,True,6639.35846119198,stone,False,True,2487.17923059599,True,7,jiwe,stone,0.3,13
527,23,532860.0166999968,1997.8875999804586,False,15000.0,,True,True,inf,True,26,siri,secret,0.3,13
528,24,537181.1106000096,3732.7482999535277,False,15000.0,,True,True,inf,True,12,anga,sky,0.3,13
529,25,543241.7749000015,840.1213999604806,False,6633.629318962832,voice,False,True,2317.814659481416,True,26,siri,secret,0.3,13
530,26,547175.2717999625,888.3660000283271,True,5588.825490783086,sky,False,True,2294.912745391543,True,12,anga,sky,0.3,13
531,27,551586.8046999676,1007.3536999989301,True,7004.146839280714,office,False,True,2503.073419640357,True,6,afisi,office,0.250390625,13
532,28,555902.4097999791,1987.4830999760889,False,6662.049585415362,wind,False,True,2498.524792707681,True,59,wingu,cloud,0.349609375,13
533,29,560951.2082999572,9570.731200044975,False,15000.0,,True,True,inf,True,48,chapati,bread,0.3,13
534,30,572848.0341999675,2289.819700003136,True,6633.2606905854445,apple,False,True,2484.1303452927223,True,35,tofaa,apple,0.34921875,13
535,31,578411.44419997,2343.180100026075,True,6981.773564051525,bread,False,True,2658.3867820257624,True,48,chapati,bread,0.3,13
536,32,584107.9801999731,6538.603499997407,False,6522.836626840335,,False,False,2428.9183134201676,True,7,jiwe,stone,0.349609375,13
537,33,592993.1370000122,inf,True,6734.837147757945,secret,False,True,2368.4185738789724,True,26,siri,secret,0.349609375,13
538,34,598847.5359999575,5811.4907999988645,False,5790.397831013627,,False,False,2395.6989155068136,True,12,anga,sky,0.349609375,13
539,35,607004.6464999905,997.3855999996886,True,6650.635081213721,cloud,False,True,2492.8175406068603,True,59,wingu,cloud,0.30000000000000004,13
540,36,611113.776299986,3136.045799998101,False,15000.0,,True,True,inf,True,54,degaga,glasses,0.3,13
541,37,616574.7405999573,1963.075400039088,False,15000.0,,True,True,inf,True,32,tabibu,doctor,0.3,13
542,38,620865.2486999636,1080.5658000172116,True,6891.509455051017,glasses,False,True,2280.2547275255083,True,54,degaga,glasses,0.3,13
543,39,625531.7803999642,816.1478000110947,True,6458.8181556559,doctor,False,True,2230.40907782795,True,32,tabibu,doctor,0.3,13
544,40,631016.8781999964,1440.8389999880455,False,6500.654536855623,skz,False,True,2417.8272684278113,True,7,jiwe,stone,0.39921874999999996,13
545,41,635477.8389999992,1115.9500000067055,True,6538.968022794774,bread,False,True,2436.984011397387,True,48,chapati,bread,0.250390625,13
546,42,639810.9792000032,1252.0768999820575,True,6818.938226160453,secret,False,True,2410.4691130802266,True,26,siri,secret,0.34921875,13
547,43,644780.7522999938,2420.939299976453,True,5813.354851338008,sky,False,True,2407.177425669004,True,12,anga,sky,0.353125,13
548,44,650156.12900001,2269.6426999755204,False,15000.0,,True,True,inf,True,22,kazi,work,0.3,13
549,45,654750.6580000045,3043.095799977891,False,15000.0,,True,True,inf,True,16,kaputula,pants,0.3,13
550,46,660119.7859999957,1081.9361999747343,True,5918.1682551353715,work,False,True,2293.0841275676858,True,22,kazi,work,0.3,13
551,47,664410.9640999814,1039.7193999961019,True,6214.36489965042,pants,False,True,2274.68244982521,True,16,kaputula,pants,0.3,13
552,48,669006.372999982,3947.9235999751836,True,6557.725557285191,stone,False,True,2446.3627786425955,True,7,jiwe,stone,0.4488281249999999,13
553,49,676168.322100013,1873.3241999871098,False,6756.15007810013,hat,False,True,2545.575039050065,True,35,tofaa,apple,0.398828125,13
554,50,681186.487799976,2488.5330999968573,False,7339.3619464870135,docto,False,True,2504.1809732435067,True,54,degaga,glasses,0.349609375,13
555,51,687004.1611999623,889.2395000439137,True,7046.843295642517,doctor,False,True,2524.4216478212584,True,32,tabibu,doctor,0.250390625,13
556,52,691155.8002000093,1349.897499952931,True,6284.897945668106,stone,False,True,2309.948972834053,True,7,jiwe,stone,0.42421874999999987,13
557,53,695683.0200999975,1942.7617999608628,False,15000.0,,True,True,inf,True,40,kitanda,bed,0.3,13
558,54,699951.0675999918,2594.6750000002794,False,15000.0,,True,True,inf,True,2,pombe,beer,0.3,13
559,1,15406.37300000526,14054.515700030606,False,15000.0,,True,True,inf,True,2,pombe,beer,0.3,14
560,2,31791.14790004678,933.3733000094071,True,6559.66741792456,beer,False,True,2613.83370896228,True,2,pombe,beer,0.3,14
561,3,36118.549400009215,14974.023699993268,False,15000.0,,True,True,inf,True,36,bustani,garden,0.3,14
562,4,53415.81140004564,1106.938699958846,True,7301.522271385949,garden,False,True,2651.7611356929747,True,36,bustani,garden,0.3,14
563,5,57869.79900003644,10334.734599979129,False,15000.0,,True,True,inf,True,6,afisi,office,0.3,14
564,6,70530.69410001626,10465.7938000164,False,15000.0,,True,True,inf,True,8,rangi,color,0.3,14
565,7,83324.67290002387,4452.4198999861255,False,7879.548602325787,garden,False,True,2940.7743011628936,True,6,afisi,office,0.3,14
566,8,91342.7495000069,3361.1910000327043,True,7236.9240707635345,color,False,True,2785.9620353817672,True,8,rangi,color,0.3,14
567,9,97918.16530004144,2214.3012000015005,True,6407.257117715169,beer,False,True,2537.6285588575847,True,2,pombe,beer,0.262109375,14
568,10,102923.94980002427,7496.477700013202,False,15000.0,,True,True,inf,True,47,ufu,death,0.3,14
569,11,112748.75910003902,1415.6228000065312,True,6923.276738524056,garden,False,True,2462.638369262028,True,36,bustani,garden,0.250390625,14
570,12,117542.04880003817,1190.325599978678,True,6736.953358444613,death,False,True,2535.9766792223063,True,47,ufu,death,0.3,14
571,13,122100.21630005213,10408.185599953867,False,15000.0,,True,True,inf,True,70,farasi,horse,0.3,14
572,14,134833.23520002887,2561.7263999884017,True,6740.84449306692,office,False,True,2371.42224653346,True,6,afisi,office,0.32539062499999993,14
573,15,140621.574000048,1470.3392999945208,True,7066.001497676667,horse,False,True,2700.5007488383335,True,70,farasi,horse,0.3,14
574,16,145214.88920005504,1179.9664999707602,True,6460.499420066152,color,False,True,2397.749710033076,True,8,rangi,color,0.250390625,14
575,17,150421.41530005028,6854.94980000658,False,15000.0,,True,True,inf,True,52,lango,door,0.3,14
576,18,159603.06970000966,6553.521000023466,False,15000.0,,True,True,inf,True,73,mbwa,dog,0.3,14
577,19,168481.8524000002,2786.466300021857,True,6696.841654815041,door,False,True,2682.4208274075204,True,52,lango,door,0.3,14
578,20,174341.69359999942,1471.4704000507481,True,6081.982841998847,dog,False,True,2541.4914209994236,True,73,mbwa,dog,0.3,14
579,21,179002.90820002556,1193.38070001686,True,6650.224146068554,death,False,True,2492.612073034277,True,47,ufu,death,0.250390625,14
580,22,183489.5868000458,7002.723399957176,False,15000.0,,True,True,inf,True,23,shukuru,thanks,0.3,14
581,23,192820.66070003202,3543.613000016194,True,6423.734128885398,horse,False,True,2379.367064442699,True,70,farasi,horse,0.349609375,14
582,24,200578.4365000436,1273.9811000064947,True,7284.448454894287,thanks,False,True,2643.2242274471437,True,23,shukuru,thanks,0.3,14
583,25,205748.6288000364,4943.676800001413,False,15000.0,,True,True,inf,True,29,skati,skirt,0.3,14
584,26,213014.51720000478,2997.9473000275902,True,6886.830427262889,office,False,True,2444.4152136314447,True,6,afisi,office,0.3734375,14
585,27,219772.0911000506,1034.6284999977797,True,6681.584775522072,skirt,False,True,2508.292387761036,True,29,skati,skirt,0.3,14
586,28,223984.24300004262,1179.6048000105657,True,6168.73088758266,door,False,True,2418.36544379133,True,52,lango,door,0.250390625,14
587,29,228117.5968000316,inf,True,5806.303413165356,dog,False,True,2403.651706582678,True,73,mbwa,dog,0.349609375,14
588,30,233747.92829999933,4568.242100009229,False,15000.0,,True,True,inf,True,66,dunia,world,0.3,14
589,31,240638.29010003246,1189.9028000188991,True,6479.2772502861835,horse,False,True,2407.1386251430918,True,70,farasi,horse,0.30000000000000004,14
590,32,244942.00270000147,1398.2786000124179,True,6392.874190550265,world,False,True,2363.9370952751324,True,66,dunia,world,0.3,14
591,33,250299.3161000195,4208.887299988419,False,15000.0,,True,True,inf,True,18,baba,father,0.3,14
592,34,256832.55300001474,1179.731799988076,True,6854.562669756795,thanks,False,True,2428.2813348783975,True,23,shukuru,thanks,0.250390625,14
593,35,261341.57390001928,3507.2859000065364,True,6708.998897787207,father,False,True,2355.4994488936036,True,18,baba,father,0.3,14
594,36,267820.35770005314,1807.8070999472402,True,7017.320623649038,office,False,True,2509.660311824519,True,6,afisi,office,0.373046875,14
595,37,272741.6907000006,1438.4785000002012,True,6456.284959168842,skirt,False,True,2395.642479584421,True,29,skati,skirt,0.250390625,14
596,38,278275.05100000417,1324.9287000508048,True,5895.239906989365,dog,False,True,2448.1199534946827,True,73,mbwa,dog,0.30000000000000004,14
597,39,283414.5116000436,9045.836300007068,False,15000.0,,True,True,inf,True,34,kioo,mirror,0.3,14
598,40,294783.8983000256,1398.2023000135086,True,6396.51304650585,world,False,True,2365.756523252925,True,66,dunia,world,0.250390625,14
599,41,299275.22550005233,1488.9791999594308,True,7180.756847935,mirror,False,True,2591.3784239675,True,34,kioo,mirror,0.3,14
600,42,304238.51940000895,5653.604799997993,False,15000.0,,True,True,inf,True,35,tofaa,apple,0.3,14
601,43,312220.69340001326,1760.9006999991834,True,6757.818488701688,father,False,True,2379.909244350844,True,18,baba,father,0.250390625,14
602,trial,start_time,rt,correct,time_bar,keyboard_response,new,on_time,expected_rt,time_bar_visible,fact_id,question,answer,alpha,14
603,1,321344.47150002234,6235.70479999762,False,15000,,True,True,inf,False,28,kichwa,head,0.3,14
604,2,329905.1497000037,915.0569000048563,True,15000,head,False,True,2204.3749124704686,False,28,kichwa,head,0.3,14
605,3,333874.3139000144,2377.7335000340827,False,15000,,True,True,inf,False,3,adui,enemy,0.3,14
606,4,338577.8435000102,1026.2021000380628,True,15000,enemy,False,True,1891.208772502167,False,3,adui,enemy,0.3,14
607,5,344220.5632000114,6967.575600021519,False,15000,,True,True,inf,False,1,jicho,eye,0.3,14
608,6,353511.1918000039,4516.861300042365,False,15000,,True,True,inf,False,63,maji,ice,0.3,14
609,7,360353.0624000123,2123.126999998931,True,15000,eye,False,True,2603.087804776345,False,1,jicho,eye,0.3,14
610,8,367959.33640003204,860.6855999678373,True,15000,ice,False,True,2528.1458929121804,False,63,maji,ice,0.3,14
611,9,371480.4884000332,3395.59690002352,False,15000,,True,True,inf,False,26,siri,secret,0.3,14
612,10,377201.4127000002,1754.5608000364155,True,15000,head,False,True,2346.348773104038,False,28,kichwa,head,0.250390625,14
613,11,381722.63100004056,1225.3875999595039,True,15000,secret,False,True,2309.6352758434505,False,26,siri,secret,0.3,14
614,12,386371.64370005485,5748.820899985731,True,15000,enemy,False,True,2403.0437453117834,False,3,adui,enemy,0.349609375,14
615,13,396728.71680004755,10195.267400005832,False,15000,,True,True,inf,False,25,keja,house,0.3,14
616,14,409249.910500017,3834.1004999820143,False,15000,,True,True,inf,False,4,jioni,evening,0.3,14
617,15,415407.6016000472,2452.326499973424,True,15000,house,False,True,2706.607595769594,False,25,keja,house,0.3,14
618,16,421474.1059000371,2149.7112999786623,True,15000,evening,False,True,2419.171404127705,False,4,jioni,evening,0.3,14
619,17,426946.96250004927,4149.698399996851,False,15000,evening,False,True,2543.1839441195393,False,1,jicho,eye,0.349609375,14
620,18,437813.17390000913,1549.6755000203848,True,15000,ice,False,True,2582.5759470787616,False,63,maji,ice,0.250390625,14
621,19,442038.2723000366,1181.605399993714,True,15000,enemy,False,True,2562.952046915607,False,3,adui,enemy,0.30000000000000004,14
622,20,447802.0048000035,977.8798000188544,True,15000,secret,False,True,2566.169576715094,False,26,siri,secret,0.250390625,14
623,21,452759.21960000414,12780.675300047733,False,15000,,True,True,inf,False,68,elimu,science,0.3,14
624,22,467868.04640002083,inf,True,15000,eye,False,True,2368.1947752938113,False,1,jicho,eye,0.39921874999999996,14
625,23,478322.71700003184,2617.1142000239342,True,15000,science,False,True,2944.149954353026,False,68,elimu,science,0.3,14
626,24,484080.5764000397,inf,True,15000,house,False,True,2558.416516807702,False,25,keja,house,0.349609375,14
627,25,492607.5065000332,inf,False,15000,eveneing,False,True,2606.745661202047,False,4,jioni,evening,0.349609375,14
628,26,500037.78400004376,inf,True,15000,eye,False,True,2337.325961254439,False,1,jicho,eye,0.412109375,14
629,27,508413.60190004343,3190.215599955991,False,15000,,True,True,inf,False,72,fasihi,book,0.3,14
630,28,513928.6014000536,4115.209499956109,False,15000,,True,True,inf,False,13,kanisa,church,0.3,14
631,29,520372.2104000044,2383.567800046876,True,15000,book,False,True,2405.2525131458483,False,72,fasihi,book,0.3,14
632,30,525679.7668000218,1092.0139999943785,True,15000,church,False,True,2394.2295425079687,False,13,kanisa,church,0.3,14
633,31,531504.3894000119,2323.3494000160135,True,15000,house,False,True,2450.0365617850866,False,25,keja,house,0.3375,14
634,32,537037.8100000089,3117.9347000434063,True,15000,evening,False,True,2437.1121345198812,False,4,jioni,evening,0.39531249999999996,14
635,33,543449.4782000547,1042.274399951566,True,15000,science,False,True,2516.602471340467,False,68,elimu,science,0.250390625,14
636,34,549691.9674000237,4455.763600009959,True,15000,eye,False,True,2397.85639847242,False,1,jicho,eye,0.46171874999999996,14
637,35,557691.842900007,4943.897699995432,False,15000,,True,True,inf,False,71,maziwa,milk,0.3,14
638,36,564963.9415999991,5399.790600000415,False,15000,,True,True,inf,False,67,maslahi,interest,0.3,14
639,37,572691.7494000518,1016.1233999533579,True,15000,milk,False,True,2553.339167083356,False,71,maziwa,milk,0.3,14
640,38,576824.8850000091,4149.453999998514,False,15000,intrest,False,True,2400.079666689219,False,67,maslahi,interest,0.3,14
641,39,585309.9964000285,1157.810500008054,True,15000,eye,False,True,2562.289171670138,False,1,jicho,eye,0.461328125,14
642,40,590339.8068000097,2083.1741000292823,True,15000,evening,False,True,2626.42642806902,False,4,jioni,evening,0.394921875,14
643,41,595667.2709000413,1320.4421999980696,True,15000,book,False,True,2650.7450673765793,False,72,fasihi,book,0.250390625,14
644,42,599945.7062000292,1949.8845000052825,True,15000,church,False,True,2641.791953125342,False,13,kanisa,church,0.250390625,14
645,43,606564.3507000059,9679.368000011891,False,15000,,True,True,inf,False,31,kijana,boy,0.3,14
646,1,115338.87289999984,4135.072300035972,False,15000.0,,True,True,inf,True,32,tabibu,doctor,0.3,2
647,2,121829.26020002924,1159.6604000078514,False,6103.186897481579,docttor,False,True,2052.5934487407894,True,32,tabibu,doctor,0.3,2
648,3,126743.77470003674,7297.9614999494515,False,15000.0,,True,True,inf,True,36,bustani,garden,0.3,2
649,4,136389.9442999973,1030.639800010249,False,6545.630208792755,gardan,False,True,2273.8151043963776,True,36,bustani,garden,0.3,2
650,5,142270.5552999978,4954.063599987421,False,15000.0,,True,True,inf,True,1,jicho,eye,0.3,2
651,6,149565.64929999877,3755.6342000025325,False,15000.0,,True,True,inf,True,18,baba,father,0.3,2
652,7,155662.52820001682,1313.4940000018105,True,5954.954795994076,eye,False,True,2477.977397997038,True,1,jicho,eye,0.3,2
653,8,160328.33450002363,1328.9494999917224,True,6677.4929503241165,father,False,True,2339.7464751620582,True,18,baba,father,0.3,2
654,9,165258.55389999924,4330.8644000208005,False,15000.0,,True,True,inf,True,27,basi,bus,0.3,2
655,10,171939.59530000575,inf,False,6810.494183145648,,False,False,2406.247091572824,True,32,tabibu,doctor,0.349609375,2
656,11,181134.60150000174,3636.820000014268,True,6183.085543250083,bus,False,True,2592.0427716250415,True,27,basi,bus,0.3,2
657,12,188032.98780001933,2025.5935000022873,False,6792.953845441382,doctor,False,True,2397.476922720691,True,36,bustani,garden,0.349609375,2
658,13,193862.1157000307,4511.945899983402,False,15000.0,,True,True,inf,True,66,dunia,world,0.3,2
659,14,200725.92160000931,4175.526899984106,False,15000.0,,True,True,inf,True,69,maumiva,pain,0.3,2
660,15,207240.7767000259,1468.6918999650516,False,6619.6553708760375,worl,False,True,2477.3276854380188,True,66,dunia,world,0.3,2
661,16,211888.37310002418,2443.9677000045776,True,6056.372392535087,pain,False,True,2362.1861962675434,True,69,maumiva,pain,0.3,2
662,17,217834.84189998126,1229.0021000080742,True,6008.8071094032175,eye,False,True,2504.9035547016088,True,1,jicho,eye,0.250390625,2
663,18,222198.53200000944,1862.3066999716684,True,7028.112073031702,father,False,True,2515.056036515851,True,18,baba,father,0.250390625,2
664,19,227380.07920002565,1157.0490999729373,False,7086.946762404482,garden,False,True,2544.473381202241,True,32,tabibu,doctor,0.39921874999999996,2
665,20,231993.9461000031,1159.00560002774,True,6764.466806670013,garden,False,True,2383.2334033350066,True,36,bustani,garden,0.34921875,2
666,21,236476.01410001516,2340.830900007859,True,5838.61049686428,bus,False,True,2419.80524843214,True,27,basi,bus,0.29414062499999993,2
667,22,241790.77309998684,4230.365600029472,False,15000.0,,True,True,inf,True,30,baskeli,bike,0.3,2
668,23,248369.9296999839,6014.977600018028,False,15000.0,,True,True,inf,True,46,kofia,hat,0.3,2
669,24,256732.41729999427,6460.293100040872,False,6433.419757663683,,False,False,2550.7098788318417,True,30,baskeli,bike,0.3,2
670,25,265578.8606000133,1769.397999974899,True,6295.303579279878,hat,False,True,2648.151789639939,True,46,kofia,hat,0.3,2
671,26,270592.63890003785,4898.64149998175,False,7155.487980963383,bike,False,True,2578.7439904816915,True,32,tabibu,doctor,0.4488281249999999,2
672,27,278890.76670003124,2877.078599995002,False,6876.472441958004,bike,False,True,2605.736220979002,True,66,dunia,world,0.349609375,2
673,28,284819.0253000357,inf,True,6596.6592951605535,pain,False,False,2632.3296475802767,True,69,maumiva,pain,0.349609375,2
674,29,293815.44939999003,1995.2241000137292,False,6776.7040173698215,world,False,True,2389.3520086849107,True,32,tabibu,doctor,0.4492187499999999,2
675,30,300162.03519998817,2315.8141000312753,False,15000.0,,True,True,inf,True,53,wakati,alarm,0.3,2
676,31,304826.6138000181,3440.3241999680176,False,15000.0,,True,True,inf,True,35,tofaa,apple,0.3,2
677,32,310608.086000022,811.6156999603845,True,6308.110730531683,alarm,False,True,2321.5553652658414,True,53,wakati,alarm,0.3,2
678,33,314822.46029999806,inf,False,6255.027318311905,koffie,False,True,2295.0136591559526,True,35,tofaa,apple,0.3,2
679,34,320453.64459999837,2027.443700004369,False,6364.61301126871,doctor,False,True,2516.306505634355,True,30,baskeli,bike,0.349609375,2
680,35,325816.9605000294,2729.693599976599,False,6595.678745092939,doctor,False,True,2465.3393725464693,True,66,dunia,world,0.39921874999999996,2
681,36,332631.7908000201,1144.3537999875844,False,6089.281336269096,apple,False,True,2545.140668134548,True,46,kofia,hat,0.349609375,2
682,37,337078.30500003183,1092.897099966649,True,6412.728129202422,pain,False,True,2540.364064601211,True,69,maumiva,pain,0.32499999999999996,2
683,38,341343.5567999841,inf,True,6975.047792459748,doctor,False,True,2488.523896229874,True,32,tabibu,doctor,0.47382812499999993,2
684,39,348140.171200037,inf,False,7248.113439509373,bus,False,True,2625.0567197546866,True,36,bustani,garden,0.398828125,2
685,40,356786.176100024,1094.0730000147596,True,6366.883295249299,world,False,True,2350.9416476246497,True,66,dunia,world,0.396484375,2
686,41,361583.8899000082,3295.010600006208,True,6433.238207603354,alarm,False,True,2384.119103801677,True,53,wakati,alarm,0.349609375,2
687,42,368013.45159998164,3645.577300048899,False,6223.801157209743,bus,False,True,2445.9005786048715,True,30,baskeli,bike,0.39921874999999996,2
688,43,375260.1733999909,1164.602900040336,True,6672.442938682092,apple,False,True,2503.721469341046,True,35,tofaa,apple,0.250390625,2
689,44,380025.9490000317,3074.6360999764875,False,7033.8771550692045,garden,False,True,2517.9385775346022,True,32,tabibu,doctor,0.49921874999999993,2
690,45,386604.76439999184,3538.4870000416413,True,6045.843059020629,hat,False,True,2523.4215295103145,True,46,kofia,hat,0.39921874999999996,2
691,46,393052.1563999937,1495.6737000029534,False,7115.552755242912,bike,False,True,2558.776377621456,True,36,bustani,garden,0.42734375,2
692,47,397766.90170000074,inf,True,6156.940464799486,bus,False,True,2578.970232399743,True,27,basi,bus,0.3437499999999999,2
693,48,404146.6983000282,1412.7672999748029,False,6185.519390291642,garden,False,True,2426.759695145821,True,30,baskeli,bike,0.4488281249999999,2
694,trial,start_time,rt,correct,time_bar,keyboard_response,new,on_time,expected_rt,time_bar_visible,fact_id,question,answer,alpha,2
695,1,434748.26279998524,3768.737100006547,False,15000,,True,True,inf,False,26,siri,secret,0.3,2
696,2,440865.71650003316,896.909200004302,True,15000,secret,False,True,2021.754423037053,False,26,siri,secret,0.3,2
697,3,448177.83280002186,2935.407699958887,False,15000,,True,True,inf,False,31,kijana,boy,0.3,2
698,4,453458.6340000387,862.4889999628067,True,15000,boy,False,True,1947.441286116072,False,31,kijana,boy,0.3,2
699,5,457741.4053999819,4957.700500031933,False,15000,,True,True,inf,False,56,wimbo,song,0.3,2
700,6,465054.35930000385,4890.349499997683,False,15000,,True,True,inf,False,58,limau,lemon,0.3,2
701,7,472301.3165000011,inf,False,15000,boy,False,True,2533.302833725184,False,56,wimbo,song,0.3,2
702,8,483212.2945000301,1194.1993999644183,True,15000,lemon,False,True,2686.2719627239035,False,58,limau,lemon,0.3,2
703,9,487608.4594000131,832.1120999753475,True,15000,secret,False,True,2363.1318870801288,False,26,siri,secret,0.250390625,2
704,10,492107.30889998376,1967.9930999991484,False,15000,,True,True,inf,False,34,kioo,mirror,0.3,2
705,11,496422.61740000686,7261.243299988564,True,15000,boy,False,True,2318.181691438414,False,31,kijana,boy,0.349609375,2
706,12,506787.60440001497,1440.2725999825634,True,15000,mirror,False,True,2538.8265023750873,False,34,kioo,mirror,0.3,2
707,13,511434.16130001424,3433.876800001599,False,15000,,True,True,inf,False,19,karamu,party,0.3,2
708,14,517212.4145000125,3047.359200019855,False,15000,,True,True,inf,False,63,maji,ice,0.3,2
709,15,522609.71460002474,1312.4139999854378,True,15000,party,False,True,2362.912038411773,False,19,karamu,party,0.3,2
710,16,527639.9519999977,629.0854000253603,True,15000,ice,False,True,2320.479870800117,False,63,maji,ice,0.3,2
711,17,531456.5123000066,inf,True,15000,song,False,True,2466.939488369339,False,56,wimbo,song,0.349609375,2
712,18,537671.3722000131,977.6492000091821,True,15000,lemon,False,True,2406.219000294444,False,58,limau,lemon,0.250390625,2
713,19,541801.0298000299,1112.8009999520145,True,15000,boy,False,True,2407.293313490163,False,31,kijana,boy,0.30000000000000004,2
714,20,546032.4032999924,3645.8185000228696,False,15000,,True,True,inf,False,2,pombe,beer,0.3,2
715,21,552028.483800008,4619.319099991117,False,15000,,True,True,inf,False,64,duka,shop,0.3,2
716,22,558992.7425000351,2210.5503999628127,False,15000,bear,False,True,2456.676024857503,False,2,pombe,beer,0.3,2
717,23,564824.3770999834,inf,True,15000,shop,False,True,2448.4298758646146,False,64,duka,shop,0.3,2
718,24,579668.402899988,1061.5747999981977,True,15000,mirror,False,True,2612.185512888634,False,34,kioo,mirror,0.250390625,2
719,25,583865.717299981,11688.260500028264,False,15000,,False,True,2505.443983682795,False,19,karamu,party,0.349609375,2
720,26,597907.0874000317,862.7005000016652,True,15000,song,False,True,2640.98142910157,False,56,wimbo,song,0.34921875,2
721,27,601790.2283000294,2293.2669000001624,True,15000,ice,False,True,2650.67397053284,False,63,maji,ice,0.262109375,2
722,28,607603.589300008,3501.5399000258185,False,15000,,True,True,inf,False,51,chunga,pot,0.3,2
723,29,613451.9519000314,1038.070999959018,True,15000,beer,False,True,2416.997514564938,False,2,pombe,beer,0.250390625,2
724,30,617332.5333999819,844.8880000505596,True,15000,pot,False,True,2278.8811536534627,False,51,chunga,pot,0.3,2
725,31,621080.1378000178,5226.050099998247,True,15000,shop,False,True,2439.1858847872604,False,64,duka,shop,0.349609375,2
726,32,629628.7236000062,3479.5342999859713,True,15000,party,False,True,2429.2574440605886,False,19,karamu,party,0.39921874999999996,2
727,33,636523.4928000136,3431.1719000106677,False,15000,,True,True,inf,False,24,barua,letter,0.3,2
728,34,642303.2936999807,3824.3492000037804,False,15000,,True,True,inf,False,3,adui,enemy,0.3,2
729,35,648487.7746999846,1075.6308000418358,True,15000,letter,False,True,2405.5520954151702,False,24,barua,letter,0.3,2
730,36,653117.2587000183,2817.9410999873653,False,15000,,False,True,2342.657193931592,False,3,adui,enemy,0.3,2
731,37,658295.7772000227,2077.8343999991193,True,15000,party,False,True,2297.8872490890994,False,19,karamu,party,0.398828125,2
732,38,665128.3131000237,inf,True,15000,shop,False,True,2386.2727349570864,False,64,duka,shop,0.39921874999999996,2
733,39,674090.2705999906,1978.637600026559,True,15000,pot,False,True,2461.507351727606,False,51,chunga,pot,0.250390625,2
734,40,678970.0995000312,4039.089299971238,False,15000,,True,True,inf,False,55,likizo,holidays,0.3,2
735,41,685383.7467000121,1027.4265999905765,True,15000,song,False,True,2468.685382039162,False,56,wimbo,song,0.29960937500000007,2
736,42,689165.0391999865,993.6827000346966,False,15000,holiday,False,True,2306.8522440539928,False,55,likizo,holidays,0.3,2
737,43,694348.4829000081,7557.23959999159,True,15000,shop,False,True,2291.5719926112283,False,64,duka,shop,0.4488281249999999,2
738,1,238043.56420005206,7060.236699995585,False,15000,,True,True,inf,False,8,rangi,color,0.3,3
739,2,247455.53949999157,1154.3642000760883,True,15000,color,False,True,2259.314865988815,False,8,rangi,color,0.3,3
740,3,252286.38970002066,16732.504099956714,False,15000,,True,True,inf,False,16,kaputula,pants,0.3,3
741,4,271360.0513000274,1281.5980999730527,True,15000,pants,False,True,2721.7550942705816,False,16,kaputula,pants,0.3,3
742,5,276924.52500003856,8309.9416999612,False,15000,,True,True,inf,False,25,keja,house,0.3,3
743,6,287571.1285000434,14137.826599995606,False,15000,,True,True,inf,False,68,elimu,science,0.3,3
744,7,304063.4579000762,1794.9959998950362,True,15000,house,False,True,2992.0171987133294,False,25,keja,house,0.3,3
745,8,309243.27039998025,1394.5428000297397,True,15000,science,False,True,2816.347123441116,False,68,elimu,science,0.3,3
746,9,322387.1133000357,2445.359500008635,True,15000,color,False,True,2668.208224939221,False,8,rangi,color,0.27460937500000004,3
747,10,328084.7357000457,1302.093500038609,True,15000,pants,False,True,2431.2018932096566,False,16,kaputula,pants,0.250390625,3
748,11,333282.2520000627,10845.455899951048,False,15000,,True,True,inf,False,6,afisi,office,0.3,3
749,12,346475.2802000148,7185.662799980491,False,15000,,True,True,inf,False,23,shukuru,thanks,0.3,3
750,13,356005.44660002925,inf,True,15000,office,False,True,2852.353455869779,False,6,afisi,office,0.3,3
751,14,362618.7747999793,1473.348900093697,True,15000,thanks,False,True,2603.5586059718776,False,23,shukuru,thanks,0.3,3
752,15,367865.33669999335,1829.8332000849769,True,15000,house,False,True,2503.349091670036,False,25,keja,house,0.250390625,3
753,16,372895.704900031,9027.41199999582,True,15000,science,False,True,2503.4763379347587,False,68,elimu,science,0.349609375,3
754,17,385557.37270007376,7456.0008000116795,False,15000,,True,True,inf,False,61,lugha,language,0.3,3
755,18,395352.20449999906,7550.613300059922,False,15000,,True,True,inf,False,59,wingu,cloud,0.3,3
756,19,405248.7071000505,1369.3489999277517,False,15000,luggage,False,True,2745.0207222251197,False,61,lugha,language,0.3,3
757,20,410495.08250004146,1576.0314000071958,True,15000,cloud,False,True,2559.7610932049356,False,59,wingu,cloud,0.3,3
758,21,416044.02320005465,2731.748200021684,True,15000,office,False,True,2465.122224660563,False,6,afisi,office,0.3316406249999999,3
759,22,422007.60460004676,2131.364200031385,True,15000,thanks,False,True,2465.5091403019737,False,23,shukuru,thanks,0.255859375,3
760,23,427521.2779000867,4944.916999898851,True,15000,science,False,True,2512.9604168104165,False,68,elimu,science,0.39921874999999996,3
761,24,435868.52860008366,5111.417399952188,False,15000,,True,True,inf,False,36,bustani,garden,0.3,3
762,25,443330.5638000602,1990.5707999132574,False,15000,,True,True,inf,False,51,chunga,pot,0.3,3
763,26,447661.52429999784,1117.8174000233412,True,15000,garden,False,True,2396.463193151337,False,36,bustani,garden,0.3,3
764,27,452244.1794000333,1365.6711999792606,True,15000,pot,False,True,2227.59668325923,False,51,chunga,pot,0.3,3
765,28,456507.331800065,1529.722400009632,True,15000,science,False,True,2325.6020404095852,False,68,elimu,science,0.398828125,3
766,29,461356.3928999938,1361.7427999852225,True,15000,language,False,True,2423.7426678415313,False,61,lugha,language,0.250390625,3
767,30,468684.9035000196,1136.5577999968082,True,15000,cloud,False,True,2454.3459184996154,False,59,wingu,cloud,0.250390625,3
768,31,473501.51960004587,5306.510500027798,False,15000,,True,True,inf,False,53,wakati,alarm,0.3,3
769,32,481146.7765000416,1636.1372999381274,True,15000,office,False,True,2423.673404315007,False,6,afisi,office,0.32734374999999993,3
770,33,486028.3067000564,1113.77029994037,True,15000,alarm,False,True,2434.7740203910507,False,53,wakati,alarm,0.3,3
771,34,490374.6950000059,8218.137399991974,False,15000,,True,True,inf,False,12,anga,sky,0.3,3
772,trial,start_time,rt,correct,time_bar,keyboard_response,new,on_time,expected_rt,time_bar_visible,fact_id,question,answer,alpha,3
773,1,553390.1409000391,5551.320899976417,False,15000.0,,True,True,inf,True,5,rafiki,friend,0.3,3
774,2,561291.9859000249,1612.4520000303164,True,6316.335282840703,friend,False,True,2159.1676414203516,True,5,rafiki,friend,0.3,3
775,3,566090.3330000583,6076.710399938747,False,15000.0,,True,True,inf,True,45,chanjo,scissors,0.3,3
776,4,574502.7254000306,1196.226799977012,False,7052.836393914032,sciccors,False,True,2194.418196957016,True,45,chanjo,scissors,0.3,3
777,5,580183.7383999955,4621.100399992429,False,15000.0,,True,True,inf,True,33,bibi,grandmother,0.3,3
778,6,587146.6103000566,4781.031199963763,False,15000.0,,True,True,inf,True,40,kitanda,bed,0.3,3
779,7,594260.772800073,1113.094799919054,True,8684.639662320234,grandmother,False,True,2510.8198311601177,True,33,bibi,grandmother,0.3,3
780,8,599325.2802999923,861.5174000151455,True,5832.601286570156,bed,False,True,2416.800643285078,True,40,kitanda,bed,0.3,3
781,9,602971.849600086,4817.751699942164,False,15000.0,,True,True,inf,True,32,tabibu,doctor,0.3,3
782,10,610137.0129000861,6742.147599929012,False,6744.464709903054,,False,False,2373.232354951527,True,5,rafiki,friend,0.349609375,3
783,11,619265.5519000255,1699.4198999600485,False,7217.935675369772,bed,False,True,2609.967837684886,True,32,tabibu,doctor,0.3,3
784,12,623746.2126000319,inf,False,7412.7362352576565,bed,False,True,2374.3681176288283,True,45,chanjo,scissors,0.349609375,3
785,13,631459.2125000199,3736.15010001231,False,15000.0,,True,True,inf,True,73,mbwa,dog,0.3,3
786,14,637540.3236000566,3916.363399941474,False,15000.0,,True,True,inf,True,26,siri,secret,0.3,3
787,15,643804.1226000059,1326.385600026697,True,5849.8558226552705,dog,False,True,2425.4279113276352,True,73,mbwa,dog,0.3,3
788,16,647901.4242000412,1145.2293000184,True,6631.218613404415,secret,False,True,2316.6093067022075,True,26,siri,secret,0.3,3
789,17,652516.2940999726,1636.4590000594035,True,8579.275385001041,grandmother,False,True,2458.137692500521,True,33,bibi,grandmother,0.250390625,3
790,18,658047.7990000509,2488.0928000202402,True,5940.706066341608,bed,False,True,2470.853033170804,True,40,kitanda,bed,0.301171875,3
791,19,663328.4944000188,2212.1804000344127,True,7000.475010086861,friend,False,True,2501.2375050434307,True,5,rafiki,friend,0.32499999999999996,3
792,20,668742.1516000759,2778.1090999487787,False,7455.942315129771,doctor,False,True,2395.9711575648853,True,45,chanjo,scissors,0.39921874999999996,3
793,21,674757.1674999781,2027.3814999964088,True,6839.569026112066,doctor,False,True,2420.784513056033,True,32,tabibu,doctor,0.253515625,3
794,22,680586.1378000118,6066.235100035556,False,15000.0,,True,True,inf,True,52,lango,door,0.3,3
795,23,688999.7519999743,3671.9362000003457,False,15000.0,,True,True,inf,True,22,kazi,work,0.3,3
796,24,695012.9063000204,1112.4552000546828,True,6386.312829145023,door,False,True,2527.1564145725115,True,52,lango,door,0.3,3
797,25,699077.2290000459,809.4997999724001,True,5931.774804541513,work,False,True,2299.8874022707564,True,22,kazi,work,0.3,3
798,26,703958.9549000375,1410.074200015515,True,5972.302974711273,dog,False,True,2486.6514873556366,True,73,mbwa,dog,0.250390625,3
799,27,708139.8147,1279.602500027977,True,7601.430749024831,scissors,False,True,2468.7153745124156,True,45,chanjo,scissors,0.398828125,3
800,28,715370.3536000103,1567.88820005022,True,7159.033421233144,secret,False,True,2580.516710616572,True,26,siri,secret,0.250390625,3
801,29,720701.6629000427,8855.9060000116,False,15000.0,,True,True,inf,True,69,maumiva,pain,0.3,3
802,30,731895.0270999921,6265.235000057146,False,15000.0,,True,True,inf,True,7,jiwe,stone,0.3,3
803,31,740507.6379000675,2697.878699982539,False,6830.564869864669,work,False,True,2749.2824349323346,True,69,maumiva,pain,0.3,3
804,32,747205.863500014,862.2581000672653,True,6799.5027587731665,stone,False,True,2567.2513793865833,True,7,jiwe,stone,0.3,3
805,33,751286.5950000705,5110.264999908395,False,6200.177044273213,doctor,False,True,2434.0885221366066,True,52,lango,door,0.349609375,3
806,34,759633.4698999999,1946.3575000409037,False,6341.037068457307,scissor,False,True,2504.5185342286536,True,22,kazi,work,0.349609375,3
807,35,765097.149600042,1611.7881999816746,False,7447.252503789967,scissor,False,True,2391.6262518949834,True,45,chanjo,scissors,0.44843749999999993,3
808,36,770377.5406000204,2612.986800028011,False,5908.9526648426545,door,False,True,2454.9763324213272,True,40,kitanda,bed,0.303125,3
809,37,775908.472900046,5449.62900003884,False,15000.0,,True,True,inf,True,46,kofia,hat,0.3,3
810,38,783703.6204000469,3157.001500017941,False,15000.0,,True,True,inf,True,71,maziwa,milk,0.3,3
811,39,789201.9464999903,1368.4709999943152,True,5945.31840454242,hat,False,True,2473.15920227121,True,46,kofia,hat,0.3,3
812,40,793400.6164000602,778.7601000163704,True,5885.858844162206,milk,False,True,2276.929422081103,True,71,maziwa,milk,0.3,3
813,41,797265.6417000107,1740.415700012818,True,7555.978284850239,scissors,False,True,2445.9891424251196,True,45,chanjo,scissors,0.43085937499999993,3
