trial,start_time,rt,correct,time_bar,keyboard_response,new,on_time,expected_rt,time_bar_visible,fact_id,question,answer,alpha
1,15406.37300000526,14054.515700030606,False,15000.0,,True,True,inf,True,2,pombe,beer,0.3
2,31791.14790004678,933.3733000094071,True,6559.66741792456,beer,False,True,2613.83370896228,True,2,pombe,beer,0.3
3,36118.549400009215,14974.023699993268,False,15000.0,,True,True,inf,True,36,bustani,garden,0.3
4,53415.81140004564,1106.938699958846,True,7301.522271385949,garden,False,True,2651.7611356929747,True,36,bustani,garden,0.3
5,57869.79900003644,10334.734599979129,False,15000.0,,True,True,inf,True,6,afisi,office,0.3
6,70530.69410001626,10465.7938000164,False,15000.0,,True,True,inf,True,8,rangi,color,0.3
7,83324.67290002387,4452.4198999861255,False,7879.548602325787,garden,False,True,2940.7743011628936,True,6,afisi,office,0.3
8,91342.7495000069,3361.1910000327043,True,7236.9240707635345,color,False,True,2785.9620353817672,True,8,rangi,color,0.3
9,97918.16530004144,2214.3012000015005,True,6407.257117715169,beer,False,True,2537.6285588575847,True,2,pombe,beer,0.262109375
10,102923.94980002427,7496.477700013202,False,15000.0,,True,True,inf,True,47,ufu,death,0.3
11,112748.75910003902,1415.6228000065312,True,6923.276738524056,garden,False,True,2462.638369262028,True,36,bustani,garden,0.250390625
12,117542.04880003817,1190.325599978678,True,6736.953358444613,death,False,True,2535.9766792223063,True,47,ufu,death,0.3
13,122100.21630005213,10408.185599953867,False,15000.0,,True,True,inf,True,70,farasi,horse,0.3
14,134833.23520002887,2561.7263999884017,True,6740.84449306692,office,False,True,2371.42224653346,True,6,afisi,office,0.32539062499999993
15,140621.574000048,1470.3392999945208,True,7066.001497676667,horse,False,True,2700.5007488383335,True,70,farasi,horse,0.3
16,145214.88920005504,1179.9664999707602,True,6460.499420066152,color,False,True,2397.749710033076,True,8,rangi,color,0.250390625
17,150421.41530005028,6854.94980000658,False,15000.0,,True,True,inf,True,52,lango,door,0.3
18,159603.06970000966,6553.521000023466,False,15000.0,,True,True,inf,True,73,mbwa,dog,0.3
19,168481.8524000002,2786.466300021857,True,6696.841654815041,door,False,True,2682.4208274075204,True,52,lango,door,0.3
20,174341.69359999942,1471.4704000507481,True,6081.982841998847,dog,False,True,2541.4914209994236,True,73,mbwa,dog,0.3
21,179002.90820002556,1193.38070001686,True,6650.224146068554,death,False,True,2492.612073034277,True,47,ufu,death,0.250390625
22,183489.5868000458,7002.723399957176,False,15000.0,,True,True,inf,True,23,shukuru,thanks,0.3
23,192820.66070003202,3543.613000016194,True,6423.734128885398,horse,False,True,2379.367064442699,True,70,farasi,horse,0.349609375
24,200578.4365000436,1273.9811000064947,True,7284.448454894287,thanks,False,True,2643.2242274471437,True,23,shukuru,thanks,0.3
25,205748.6288000364,4943.676800001413,False,15000.0,,True,True,inf,True,29,skati,skirt,0.3
26,213014.51720000478,2997.9473000275902,True,6886.830427262889,office,False,True,2444.4152136314447,True,6,afisi,office,0.3734375
27,219772.0911000506,1034.6284999977797,True,6681.584775522072,skirt,False,True,2508.292387761036,True,29,skati,skirt,0.3
28,223984.24300004262,1179.6048000105657,True,6168.73088758266,door,False,True,2418.36544379133,True,52,lango,door,0.250390625
29,228117.5968000316,inf,True,5806.303413165356,dog,False,True,2403.651706582678,True,73,mbwa,dog,0.349609375
30,233747.92829999933,4568.242100009229,False,15000.0,,True,True,inf,True,66,dunia,world,0.3
31,240638.29010003246,1189.9028000188991,True,6479.2772502861835,horse,False,True,2407.1386251430918,True,70,farasi,horse,0.30000000000000004
32,244942.00270000147,1398.2786000124179,True,6392.874190550265,world,False,True,2363.9370952751324,True,66,dunia,world,0.3
33,250299.3161000195,4208.887299988419,False,15000.0,,True,True,inf,True,18,baba,father,0.3
34,256832.55300001474,1179.731799988076,True,6854.562669756795,thanks,False,True,2428.2813348783975,True,23,shukuru,thanks,0.250390625
35,261341.57390001928,3507.2859000065364,True,6708.998897787207,father,False,True,2355.4994488936036,True,18,baba,father,0.3
36,267820.35770005314,1807.8070999472402,True,7017.320623649038,office,False,True,2509.660311824519,True,6,afisi,office,0.373046875
37,272741.6907000006,1438.4785000002012,True,6456.284959168842,skirt,False,True,2395.642479584421,True,29,skati,skirt,0.250390625
38,278275.05100000417,1324.9287000508048,True,5895.239906989365,dog,False,True,2448.1199534946827,True,73,mbwa,dog,0.30000000000000004
39,283414.5116000436,9045.836300007068,False,15000.0,,True,True,inf,True,34,kioo,mirror,0.3
40,294783.8983000256,1398.2023000135086,True,6396.51304650585,world,False,True,2365.756523252925,True,66,dunia,world,0.250390625
41,299275.22550005233,1488.9791999594308,True,7180.756847935,mirror,False,True,2591.3784239675,True,34,kioo,mirror,0.3
42,304238.51940000895,5653.604799997993,False,15000.0,,True,True,inf,True,35,tofaa,apple,0.3
43,312220.69340001326,1760.9006999991834,True,6757.818488701688,father,False,True,2379.909244350844,True,18,baba,father,0.250390625

trial,start_time,rt,correct,time_bar,keyboard_response,new,on_time,expected_rt,time_bar_visible,fact_id,question,answer,alpha
1,321344.47150002234,6235.70479999762,False,15000,,True,True,inf,False,28,kichwa,head,0.3
2,329905.1497000037,915.0569000048563,True,15000,head,False,True,2204.3749124704686,False,28,kichwa,head,0.3
3,333874.3139000144,2377.7335000340827,False,15000,,True,True,inf,False,3,adui,enemy,0.3
4,338577.8435000102,1026.2021000380628,True,15000,enemy,False,True,1891.208772502167,False,3,adui,enemy,0.3
5,344220.5632000114,6967.575600021519,False,15000,,True,True,inf,False,1,jicho,eye,0.3
6,353511.1918000039,4516.861300042365,False,15000,,True,True,inf,False,63,maji,ice,0.3
7,360353.0624000123,2123.126999998931,True,15000,eye,False,True,2603.087804776345,False,1,jicho,eye,0.3
8,367959.33640003204,860.6855999678373,True,15000,ice,False,True,2528.1458929121804,False,63,maji,ice,0.3
9,371480.4884000332,3395.59690002352,False,15000,,True,True,inf,False,26,siri,secret,0.3
10,377201.4127000002,1754.5608000364155,True,15000,head,False,True,2346.348773104038,False,28,kichwa,head,0.250390625
11,381722.63100004056,1225.3875999595039,True,15000,secret,False,True,2309.6352758434505,False,26,siri,secret,0.3
12,386371.64370005485,5748.820899985731,True,15000,enemy,False,True,2403.0437453117834,False,3,adui,enemy,0.349609375
13,396728.71680004755,10195.267400005832,False,15000,,True,True,inf,False,25,keja,house,0.3
14,409249.910500017,3834.1004999820143,False,15000,,True,True,inf,False,4,jioni,evening,0.3
15,415407.6016000472,2452.326499973424,True,15000,house,False,True,2706.607595769594,False,25,keja,house,0.3
16,421474.1059000371,2149.7112999786623,True,15000,evening,False,True,2419.171404127705,False,4,jioni,evening,0.3
17,426946.96250004927,4149.698399996851,False,15000,evening,False,True,2543.1839441195393,False,1,jicho,eye,0.349609375
18,437813.17390000913,1549.6755000203848,True,15000,ice,False,True,2582.5759470787616,False,63,maji,ice,0.250390625
19,442038.2723000366,1181.605399993714,True,15000,enemy,False,True,2562.952046915607,False,3,adui,enemy,0.30000000000000004
20,447802.0048000035,977.8798000188544,True,15000,secret,False,True,2566.169576715094,False,26,siri,secret,0.250390625
21,452759.21960000414,12780.675300047733,False,15000,,True,True,inf,False,68,elimu,science,0.3
22,467868.04640002083,inf,True,15000,eye,False,True,2368.1947752938113,False,1,jicho,eye,0.39921874999999996
23,478322.71700003184,2617.1142000239342,True,15000,science,False,True,2944.149954353026,False,68,elimu,science,0.3
24,484080.5764000397,inf,True,15000,house,False,True,2558.416516807702,False,25,keja,house,0.349609375
25,492607.5065000332,inf,False,15000,eveneing,False,True,2606.745661202047,False,4,jioni,evening,0.349609375
26,500037.78400004376,inf,True,15000,eye,False,True,2337.325961254439,False,1,jicho,eye,0.412109375
27,508413.60190004343,3190.215599955991,False,15000,,True,True,inf,False,72,fasihi,book,0.3
28,513928.6014000536,4115.209499956109,False,15000,,True,True,inf,False,13,kanisa,church,0.3
29,520372.2104000044,2383.567800046876,True,15000,book,False,True,2405.2525131458483,False,72,fasihi,book,0.3
30,525679.7668000218,1092.0139999943785,True,15000,church,False,True,2394.2295425079687,False,13,kanisa,church,0.3
31,531504.3894000119,2323.3494000160135,True,15000,house,False,True,2450.0365617850866,False,25,keja,house,0.3375
32,537037.8100000089,3117.9347000434063,True,15000,evening,False,True,2437.1121345198812,False,4,jioni,evening,0.39531249999999996
33,543449.4782000547,1042.274399951566,True,15000,science,False,True,2516.602471340467,False,68,elimu,science,0.250390625
34,549691.9674000237,4455.763600009959,True,15000,eye,False,True,2397.85639847242,False,1,jicho,eye,0.46171874999999996
35,557691.842900007,4943.897699995432,False,15000,,True,True,inf,False,71,maziwa,milk,0.3
36,564963.9415999991,5399.790600000415,False,15000,,True,True,inf,False,67,maslahi,interest,0.3
37,572691.7494000518,1016.1233999533579,True,15000,milk,False,True,2553.339167083356,False,71,maziwa,milk,0.3
38,576824.8850000091,4149.453999998514,False,15000,intrest,False,True,2400.079666689219,False,67,maslahi,interest,0.3
39,585309.9964000285,1157.810500008054,True,15000,eye,False,True,2562.289171670138,False,1,jicho,eye,0.461328125
40,590339.8068000097,2083.1741000292823,True,15000,evening,False,True,2626.42642806902,False,4,jioni,evening,0.394921875
41,595667.2709000413,1320.4421999980696,True,15000,book,False,True,2650.7450673765793,False,72,fasihi,book,0.250390625
42,599945.7062000292,1949.8845000052825,True,15000,church,False,True,2641.791953125342,False,13,kanisa,church,0.250390625
43,606564.3507000059,9679.368000011891,False,15000,,True,True,inf,False,31,kijana,boy,0.3

