trial,start_time,rt,correct,time_bar,keyboard_response,new,on_time,expected_rt,time_bar_visible,fact_id,question,answer,alpha
1,238043.56420005206,7060.236699995585,False,15000,,True,True,inf,False,8,rangi,color,0.3
2,247455.53949999157,1154.3642000760883,True,15000,color,False,True,2259.314865988815,False,8,rangi,color,0.3
3,252286.38970002066,16732.504099956714,False,15000,,True,True,inf,False,16,kaputula,pants,0.3
4,271360.0513000274,1281.5980999730527,True,15000,pants,False,True,2721.7550942705816,False,16,kaputula,pants,0.3
5,276924.52500003856,8309.9416999612,False,15000,,True,True,inf,False,25,keja,house,0.3
6,287571.1285000434,14137.826599995606,False,15000,,True,True,inf,False,68,elimu,science,0.3
7,304063.4579000762,1794.9959998950362,True,15000,house,False,True,2992.0171987133294,False,25,keja,house,0.3
8,309243.27039998025,1394.5428000297397,True,15000,science,False,True,2816.347123441116,False,68,elimu,science,0.3
9,322387.1133000357,2445.359500008635,True,15000,color,False,True,2668.208224939221,False,8,rangi,color,0.27460937500000004
10,328084.7357000457,1302.093500038609,True,15000,pants,False,True,2431.2018932096566,False,16,kaputula,pants,0.250390625
11,333282.2520000627,10845.455899951048,False,15000,,True,True,inf,False,6,afisi,office,0.3
12,346475.2802000148,7185.662799980491,False,15000,,True,True,inf,False,23,shukuru,thanks,0.3
13,356005.44660002925,inf,True,15000,office,False,True,2852.353455869779,False,6,afisi,office,0.3
14,362618.7747999793,1473.348900093697,True,15000,thanks,False,True,2603.5586059718776,False,23,shukuru,thanks,0.3
15,367865.33669999335,1829.8332000849769,True,15000,house,False,True,2503.349091670036,False,25,keja,house,0.250390625
16,372895.704900031,9027.41199999582,True,15000,science,False,True,2503.4763379347587,False,68,elimu,science,0.349609375
17,385557.37270007376,7456.0008000116795,False,15000,,True,True,inf,False,61,lugha,language,0.3
18,395352.20449999906,7550.613300059922,False,15000,,True,True,inf,False,59,wingu,cloud,0.3
19,405248.7071000505,1369.3489999277517,False,15000,luggage,False,True,2745.0207222251197,False,61,lugha,language,0.3
20,410495.08250004146,1576.0314000071958,True,15000,cloud,False,True,2559.7610932049356,False,59,wingu,cloud,0.3
21,416044.02320005465,2731.748200021684,True,15000,office,False,True,2465.122224660563,False,6,afisi,office,0.3316406249999999
22,422007.60460004676,2131.364200031385,True,15000,thanks,False,True,2465.5091403019737,False,23,shukuru,thanks,0.255859375
23,427521.2779000867,4944.916999898851,True,15000,science,False,True,2512.9604168104165,False,68,elimu,science,0.39921874999999996
24,435868.52860008366,5111.417399952188,False,15000,,True,True,inf,False,36,bustani,garden,0.3
25,443330.5638000602,1990.5707999132574,False,15000,,True,True,inf,False,51,chunga,pot,0.3
26,447661.52429999784,1117.8174000233412,True,15000,garden,False,True,2396.463193151337,False,36,bustani,garden,0.3
27,452244.1794000333,1365.6711999792606,True,15000,pot,False,True,2227.59668325923,False,51,chunga,pot,0.3
28,456507.331800065,1529.722400009632,True,15000,science,False,True,2325.6020404095852,False,68,elimu,science,0.398828125
29,461356.3928999938,1361.7427999852225,True,15000,language,False,True,2423.7426678415313,False,61,lugha,language,0.250390625
30,468684.9035000196,1136.5577999968082,True,15000,cloud,False,True,2454.3459184996154,False,59,wingu,cloud,0.250390625
31,473501.51960004587,5306.510500027798,False,15000,,True,True,inf,False,53,wakati,alarm,0.3
32,481146.7765000416,1636.1372999381274,True,15000,office,False,True,2423.673404315007,False,6,afisi,office,0.32734374999999993
33,486028.3067000564,1113.77029994037,True,15000,alarm,False,True,2434.7740203910507,False,53,wakati,alarm,0.3
34,490374.6950000059,8218.137399991974,False,15000,,True,True,inf,False,12,anga,sky,0.3

trial,start_time,rt,correct,time_bar,keyboard_response,new,on_time,expected_rt,time_bar_visible,fact_id,question,answer,alpha
1,553390.1409000391,5551.320899976417,False,15000.0,,True,True,inf,True,5,rafiki,friend,0.3
2,561291.9859000249,1612.4520000303164,True,6316.335282840703,friend,False,True,2159.1676414203516,True,5,rafiki,friend,0.3
3,566090.3330000583,6076.710399938747,False,15000.0,,True,True,inf,True,45,chanjo,scissors,0.3
4,574502.7254000306,1196.226799977012,False,7052.836393914032,sciccors,False,True,2194.418196957016,True,45,chanjo,scissors,0.3
5,580183.7383999955,4621.100399992429,False,15000.0,,True,True,inf,True,33,bibi,grandmother,0.3
6,587146.6103000566,4781.031199963763,False,15000.0,,True,True,inf,True,40,kitanda,bed,0.3
7,594260.772800073,1113.094799919054,True,8684.639662320234,grandmother,False,True,2510.8198311601177,True,33,bibi,grandmother,0.3
8,599325.2802999923,861.5174000151455,True,5832.601286570156,bed,False,True,2416.800643285078,True,40,kitanda,bed,0.3
9,602971.849600086,4817.751699942164,False,15000.0,,True,True,inf,True,32,tabibu,doctor,0.3
10,610137.0129000861,6742.147599929012,False,6744.464709903054,,False,False,2373.232354951527,True,5,rafiki,friend,0.349609375
11,619265.5519000255,1699.4198999600485,False,7217.935675369772,bed,False,True,2609.967837684886,True,32,tabibu,doctor,0.3
12,623746.2126000319,inf,False,7412.7362352576565,bed,False,True,2374.3681176288283,True,45,chanjo,scissors,0.349609375
13,631459.2125000199,3736.15010001231,False,15000.0,,True,True,inf,True,73,mbwa,dog,0.3
14,637540.3236000566,3916.363399941474,False,15000.0,,True,True,inf,True,26,siri,secret,0.3
15,643804.1226000059,1326.385600026697,True,5849.8558226552705,dog,False,True,2425.4279113276352,True,73,mbwa,dog,0.3
16,647901.4242000412,1145.2293000184,True,6631.218613404415,secret,False,True,2316.6093067022075,True,26,siri,secret,0.3
17,652516.2940999726,1636.4590000594035,True,8579.275385001041,grandmother,False,True,2458.137692500521,True,33,bibi,grandmother,0.250390625
18,658047.7990000509,2488.0928000202402,True,5940.706066341608,bed,False,True,2470.853033170804,True,40,kitanda,bed,0.301171875
19,663328.4944000188,2212.1804000344127,True,7000.475010086861,friend,False,True,2501.2375050434307,True,5,rafiki,friend,0.32499999999999996
20,668742.1516000759,2778.1090999487787,False,7455.942315129771,doctor,False,True,2395.9711575648853,True,45,chanjo,scissors,0.39921874999999996
21,674757.1674999781,2027.3814999964088,True,6839.569026112066,doctor,False,True,2420.784513056033,True,32,tabibu,doctor,0.253515625
22,680586.1378000118,6066.235100035556,False,15000.0,,True,True,inf,True,52,lango,door,0.3
23,688999.7519999743,3671.9362000003457,False,15000.0,,True,True,inf,True,22,kazi,work,0.3
24,695012.9063000204,1112.4552000546828,True,6386.312829145023,door,False,True,2527.1564145725115,True,52,lango,door,0.3
25,699077.2290000459,809.4997999724001,True,5931.774804541513,work,False,True,2299.8874022707564,True,22,kazi,work,0.3
26,703958.9549000375,1410.074200015515,True,5972.302974711273,dog,False,True,2486.6514873556366,True,73,mbwa,dog,0.250390625
27,708139.8147,1279.602500027977,True,7601.430749024831,scissors,False,True,2468.7153745124156,True,45,chanjo,scissors,0.398828125
28,715370.3536000103,1567.88820005022,True,7159.033421233144,secret,False,True,2580.516710616572,True,26,siri,secret,0.250390625
29,720701.6629000427,8855.9060000116,False,15000.0,,True,True,inf,True,69,maumiva,pain,0.3
30,731895.0270999921,6265.235000057146,False,15000.0,,True,True,inf,True,7,jiwe,stone,0.3
31,740507.6379000675,2697.878699982539,False,6830.564869864669,work,False,True,2749.2824349323346,True,69,maumiva,pain,0.3
32,747205.863500014,862.2581000672653,True,6799.5027587731665,stone,False,True,2567.2513793865833,True,7,jiwe,stone,0.3
33,751286.5950000705,5110.264999908395,False,6200.177044273213,doctor,False,True,2434.0885221366066,True,52,lango,door,0.349609375
34,759633.4698999999,1946.3575000409037,False,6341.037068457307,scissor,False,True,2504.5185342286536,True,22,kazi,work,0.349609375
35,765097.149600042,1611.7881999816746,False,7447.252503789967,scissor,False,True,2391.6262518949834,True,45,chanjo,scissors,0.44843749999999993
36,770377.5406000204,2612.986800028011,False,5908.9526648426545,door,False,True,2454.9763324213272,True,40,kitanda,bed,0.303125
37,775908.472900046,5449.62900003884,False,15000.0,,True,True,inf,True,46,kofia,hat,0.3
38,783703.6204000469,3157.001500017941,False,15000.0,,True,True,inf,True,71,maziwa,milk,0.3
39,789201.9464999903,1368.4709999943152,True,5945.31840454242,hat,False,True,2473.15920227121,True,46,kofia,hat,0.3
40,793400.6164000602,778.7601000163704,True,5885.858844162206,milk,False,True,2276.929422081103,True,71,maziwa,milk,0.3
41,797265.6417000107,1740.415700012818,True,7555.978284850239,scissors,False,True,2445.9891424251196,True,45,chanjo,scissors,0.43085937499999993

