trial,start_time,rt,correct,time_bar,keyboard_response,new,on_time,expected_rt,time_bar_visible,fact_id,question,answer,alpha
1,126000.30919996789,5825.362400035374,False,15000,,True,True,inf,False,19,karamu,party,0.3
2,134168.2359999977,1195.9932000027038,True,15000,party,False,True,2177.731756100829,False,19,karamu,party,0.3
3,139498.6602999852,7290.689999994356,False,15000,,True,True,inf,False,55,likizo,holidays,0.3
4,149145.44779999414,894.4711000076495,False,15000,holiday,False,True,2273.853034263562,False,55,likizo,holidays,0.3
5,154657.9464999959,4578.659799997695,False,15000,,True,True,inf,False,10,kamba,rope,0.3
6,161588.75299995998,4940.432200033683,False,15000,,True,True,inf,False,70,farasi,horse,0.3
7,168884.43480001297,inf,True,15000,rope,False,True,2517.835410837293,False,10,kamba,rope,0.3
8,179546.92499997327,1296.008300036192,True,15000,horse,False,True,2678.365727706273,False,70,farasi,horse,0.3
9,184894.00999998907,1714.5201999810524,True,15000,party,False,True,2396.5015497789145,False,19,karamu,party,0.250390625
10,190457.39519997733,7540.360299986787,False,15000,,True,True,inf,False,54,degaga,glasses,0.3
11,200338.05319998646,1812.6287999912165,True,15000,holidays,False,True,2391.5924640450307,False,55,likizo,holidays,0.250390625
12,210548.582599964,1613.1258000386879,True,15000,glasses,False,True,2759.8106718833214,False,54,degaga,glasses,0.3
13,216579.52329999534,4212.088899977971,False,15000,,True,True,inf,False,26,siri,secret,0.3
14,223142.39950000774,1446.556699986104,True,15000,rope,False,True,2410.71298139299,False,10,kamba,rope,0.250390625
15,227790.24950001622,1196.827499952633,True,15000,secret,False,True,2364.857682041747,False,26,siri,secret,0.3
16,233155.7291999925,1279.807000013534,True,15000,horse,False,True,2396.4986175297013,False,70,farasi,horse,0.250390625
17,238120.11819996405,3171.862700022757,False,15000,,True,True,inf,False,40,kitanda,bed,0.3
18,243635.2017999743,3321.1834999965504,False,15000,,True,True,inf,False,33,bibi,grandmother,0.3
19,249315.38429996,1845.0049000093713,True,15000,bed,False,True,2364.0030096713376,False,40,kitanda,bed,0.3
20,254262.733999989,1049.487499985844,True,15000,grandmother,False,True,2332.028191392701,False,33,bibi,grandmother,0.3
21,261909.861299966,1495.1442000456154,True,15000,glasses,False,True,2368.6553837580914,False,54,degaga,glasses,0.250390625
22,267576.13709999714,5477.445999975316,False,15000,,True,True,inf,False,34,kioo,mirror,0.3
23,275403.36200001184,4307.982800004538,False,15000,,True,True,inf,False,60,duara,wheel,0.3
24,282066.28939998336,1096.115100022871,True,15000,mirror,False,True,2530.0874057155133,False,34,kioo,mirror,0.3
25,286947.45719997445,3927.7490000240505,True,15000,wheel,False,True,2383.089692086455,False,60,duara,wheel,0.3
26,294530.2836999763,1356.1914000310935,True,15000,secret,False,True,2566.5056693673155,False,26,siri,secret,0.250390625
27,300057.92900000233,1291.6607999941334,True,15000,bed,False,True,2377.4491104427243,False,40,kitanda,bed,0.250390625
28,304373.4370999737,1245.4417000408284,True,15000,grandmother,False,True,2371.9000907208238,False,33,bibi,grandmother,0.250390625
29,311253.31050000386,6617.131499981042,False,15000,,True,True,inf,False,44,tunda,fruit,0.3
30,320218.5491999844,3277.850100013893,False,15000,,True,True,inf,False,47,ufu,death,0.3
31,325846.00419999333,2158.9592000236735,True,15000,fruit,False,True,2534.8101750270425,False,44,tunda,fruit,0.3
32,331559.9942000117,1151.794199948199,True,15000,death,False,True,2372.0513658714713,False,47,ufu,death,0.3
33,336423.68439998245,1359.9684999790043,True,15000,mirror,False,True,2411.225925527476,False,34,kioo,mirror,0.250390625
34,341638.5777000105,1329.4440999743529,True,15000,wheel,False,True,2425.5674287006645,False,60,duara,wheel,0.250390625
35,346504.0042999899,3460.092999972403,False,15000,,True,True,inf,False,2,pombe,beer,0.3
36,352317.3657999723,3440.5008000321686,False,15000,,True,True,inf,False,53,wakati,alarm,0.3
37,358114.5042999997,1045.348500018008,True,15000,beer,False,True,2386.677229165812,False,2,pombe,beer,0.3
38,362461.7883999599,945.465300057549,True,15000,alarm,False,True,2303.863800471024,False,53,wakati,alarm,0.3
39,366911.0585000017,2377.6622000150383,False,15000,,True,True,inf,False,27,basi,bus,0.3
40,371641.9759999844,4396.306200011168,False,15000,,True,True,inf,False,39,chakula,food,0.3
41,378388.1870000041,14988.826899963897,False,15000,,False,False,2379.457138789386,False,27,basi,bus,0.3
42,395799.15969999274,1643.1538999895565,True,15000,food,False,True,2899.644069393374,False,39,chakula,food,0.3
43,401126.9093999872,1348.8075999775901,True,15000,fruit,False,True,2636.22083723406,False,44,tunda,fruit,0.250390625
44,405742.4911999842,1029.097200022079,True,15000,death,False,True,2643.8252833885003,False,47,ufu,death,0.250390625
45,410406.7531999899,1029.5557000208646,True,15000,beer,False,True,2395.4139948925013,False,2,pombe,beer,0.250390625

trial,start_time,rt,correct,time_bar,keyboard_response,new,on_time,expected_rt,time_bar_visible,fact_id,question,answer,alpha
1,442248.5943000065,7005.882799974643,False,15000.0,,True,True,inf,True,4,jioni,evening,0.3
2,451607.5131999678,1525.5739000276662,True,6842.98968364199,evening,False,True,2255.994841820995,True,4,jioni,evening,0.3
3,457484.5630999771,3102.7618999942206,False,15000.0,,True,True,inf,True,51,chunga,pot,0.3
4,462932.16289998963,745.7188999978825,True,4924.7649671675845,pot,False,True,1962.8824835837922,True,51,chunga,pot,0.3
5,466732.5216999743,2367.537100042682,False,15000.0,,True,True,inf,True,5,rafiki,friend,0.3
6,471444.36229998246,3196.2663999875076,False,15000.0,,True,True,inf,True,32,tabibu,doctor,0.3
7,476992.73299996275,1128.6528000491671,True,6619.3964212448855,friend,False,True,2310.6982106224427,True,5,rafiki,friend,0.3
8,481822.8907000157,928.2211999525316,True,6633.252628578292,doctor,False,True,2317.626314289146,True,32,tabibu,doctor,0.3
9,487373.3674999676,5157.628100016154,False,15000.0,,True,True,inf,True,42,chama,society,0.3
10,494884.7256000154,7119.935399969108,False,15000.0,,True,True,inf,True,49,kuku,chicken,0.3
11,504346.2300999672,2386.744700022973,True,7607.883203191831,society,False,True,2638.4416015959155,True,42,chama,society,0.3
12,510526.38870000374,975.895399984438,True,7494.676735543511,chicken,False,True,2581.8383677717557,True,49,kuku,chicken,0.3
13,515391.2004000158,1527.9065999784507,True,7426.266845797923,evening,False,True,2547.6334228989617,True,4,jioni,evening,0.250390625
14,520790.27479997603,1527.5174000416882,True,6054.0000359717915,pot,False,True,2527.5000179858957,True,51,chunga,pot,0.250390625
15,525237.2077999753,1038.6129000107758,True,6695.879698661751,friend,False,True,2348.9398493308754,True,5,rafiki,friend,0.250390625
16,529750.0997000025,inf,True,6686.13845070193,doctor,False,True,2344.069225350965,True,32,tabibu,doctor,0.349609375
17,535016.1055999924,2929.5356000075117,False,15000.0,,True,True,inf,True,30,baskeli,bike,0.3
18,540295.7481999765,4784.174500033259,False,15000.0,,True,True,inf,True,71,maziwa,milk,0.3
19,547426.8699999666,1245.8890000125393,True,6189.646055390203,bike,False,True,2428.8230276951017,True,30,baskeli,bike,0.3
20,551873.0808999971,978.5815000068396,True,6101.77431485487,milk,False,True,2384.887157427435,True,71,maziwa,milk,0.3
21,556740.1925000013,2160.283699980937,True,7097.3662349044835,society,False,True,2383.1831174522417,True,42,chama,society,0.26835937500000007
22,562720.099499973,inf,True,7096.4275499601445,chicken,False,True,2382.7137749800722,True,49,kuku,chicken,0.349609375
23,568950.617399998,5123.236100014765,False,15000.0,,True,True,inf,True,28,kichwa,head,0.3
24,576446.5580999968,1744.4882999989204,True,6804.194771066646,doctor,False,True,2403.097385533323,True,32,tabibu,doctor,0.30000000000000004
25,582676.5616000048,1544.8621999821626,True,6320.263164620355,head,False,True,2494.1315823101777,True,28,kichwa,head,0.3
26,587507.6026999741,4155.049699998926,False,15000.0,,True,True,inf,True,41,tumbili,monkey,0.3
27,594005.3608000162,14905.641999968793,False,15000.0,,True,True,inf,True,62,dubu,bear,0.3
28,611264.4551999983,7473.428400000557,False,7771.288113566599,do,False,False,2886.6440567832997,True,41,tumbili,monkey,0.3
29,621509.1812000028,inf,True,7337.649747435635,bear,False,True,3002.8248737178174,True,62,dubu,bear,0.3
30,627522.3314000177,1306.5342999761924,True,6721.417727690929,bike,False,True,2694.7088638454643,True,30,baskeli,bike,0.250390625
31,632018.996800005,1461.994599958416,True,6734.25901028701,milk,False,True,2701.129505143505,True,71,maziwa,milk,0.250390625
32,637150.5344999605,1044.0709000104107,True,7725.905708767172,chicken,False,True,2697.452854383586,True,49,kuku,chicken,0.30000000000000004
33,641598.5210000072,1174.49189996114,True,6265.90863362014,head,False,True,2466.95431681007,True,28,kichwa,head,0.250390625
34,646031.4387999824,4191.869599977508,False,15000.0,,True,True,inf,True,23,shukuru,thanks,0.3
35,652578.395999968,2826.4111000462435,False,15000.0,,True,True,inf,True,50,ujuzi,knowledge,0.3
36,657757.8700999729,3276.7008999944665,True,6783.812347286838,thanks,False,True,2392.906173643419,True,23,shukuru,thanks,0.3
37,666886.5023999824,2245.081100030802,True,8040.2898438357115,knowledge,False,True,2521.6449219178558,True,50,ujuzi,knowledge,0.3
38,673333.223499998,1445.132399967406,True,6970.091998908209,monkey,False,True,2486.0459994541043,True,41,tumbili,monkey,0.250390625
39,678397.9808000149,1065.9863999462686,True,6196.15091229217,bear,False,True,2432.075456146085,True,62,dubu,bear,0.283203125
40,682628.7045999779,2774.347700004,False,15000.0,,True,True,inf,True,69,maumiva,pain,0.3
41,687760.2545999689,7024.0005000378005,False,15000.0,,True,True,inf,True,63,maji,ice,0.3
42,697139.1786999884,1569.5152999833226,True,6394.050450619491,pain,False,True,2531.0252253097456,True,69,maumiva,pain,0.3
43,701920.0909999781,1193.6917999992147,True,6028.426161063704,ice,False,True,2514.713080531852,True,63,maji,ice,0.3
44,705952.3933000164,13362.375499971677,False,15000.0,,True,True,inf,True,46,kofia,hat,0.3

