trial,start_time,rt,correct,time_bar,keyboard_response,new,on_time,expected_rt,time_bar_visible,fact_id,question,answer,alpha
1,106347.53500000807,3663.169499952346,False,15000,,True,True,inf,False,14,saduku,box,0.3
2,112342.5256999908,916.110199992545,True,15000,box,False,True,2011.3409956297837,False,14,saduku,box,0.3
3,116461.86079998733,4644.850099983159,False,15000,,True,True,inf,False,38,tumaini,hope,0.3
4,123433.12679999508,857.4855999904685,True,15000,hope,False,True,2090.5790392522563,False,38,tumaini,hope,0.3
5,127918.11979998602,4204.512699972838,False,15000,,True,True,inf,False,49,kuku,chicken,0.3
6,134449.7018000111,4664.885699981824,False,15000,,True,True,inf,False,68,elimu,science,0.3
7,141444.14659996983,1110.4711000225507,True,15000,chicken,False,True,2484.4950908797805,False,49,kuku,chicken,0.3
8,147740.69419997977,1015.8187000197358,True,15000,science,False,True,2473.037509589432,False,68,elimu,science,0.3
9,152710.48089995747,2764.2753000254743,False,15000,,True,True,inf,False,47,ufu,death,0.3
10,157801.40999995638,1441.106500045862,True,15000,box,False,True,2345.7948282191815,False,14,saduku,box,0.250390625
11,162662.16539999004,1052.4305999861099,True,15000,death,False,True,2292.3653480445114,False,47,ufu,death,0.3
12,167486.22779996367,2932.4033000157215,False,15000,,True,True,inf,False,65,maliki,king,0.3
13,172746.62809999427,1879.9089000094682,False,15000,science,False,True,2389.204424160238,False,38,tumaini,hope,0.349609375
14,178370.75339996954,1135.929899988696,True,15000,king,False,True,2346.6465680004576,False,65,maliki,king,0.3
15,182934.47609996656,4676.136800029781,False,15000,,True,True,inf,False,31,kijana,boy,0.3
16,189940.3627999709,6774.211300013121,False,15000,,True,True,inf,False,71,maziwa,milk,0.3
17,199043.47139998572,2108.2911000121385,True,15000,boy,False,True,2602.08066067706,False,31,kijana,boy,0.3
18,204988.93940000562,1285.5374999926426,True,15000,milk,False,True,2555.530099237274,False,71,maziwa,milk,0.3
19,209995.0613999972,8527.34769997187,False,15000,box,False,True,2573.0701766700604,False,49,kuku,chicken,0.349609375
20,221840.05219995743,1410.353200044483,True,15000,science,False,True,2630.8662608289274,False,68,elimu,science,0.250390625
21,226988.78999997396,4670.478700019885,True,15000,death,False,True,2548.846834591198,False,47,ufu,death,0.349609375
22,235442.9078999674,1380.4270999971777,False,15000,science,False,True,2620.542990992452,False,38,tumaini,hope,0.39921874999999996
23,240625.3554999712,1112.9868000280112,False,15000,science,False,True,2518.666689791255,False,65,maliki,king,0.349609375
24,245474.12249998888,4784.326299966779,False,15000,,True,True,inf,False,67,maslahi,interest,0.3
25,252588.451299991,5785.679699969478,False,15000,science,False,True,2402.0826803276072,False,49,kuku,chicken,0.39921874999999996
26,261655.35329998238,3779.109499999322,False,15000,milk,False,True,2605.17269001259,False,67,maslahi,interest,0.3
27,268630.7762999786,3131.6721999901347,False,15000,science,False,True,2573.9788173138395,False,31,kijana,boy,0.349609375
28,274958.42899999116,1771.904999972321,False,15000,science,False,True,2547.7258643461973,False,38,tumaini,hope,0.43867187499999993
29,279951.98159996653,2276.6304000397213,True,15000,milk,False,True,2631.1770832497873,False,71,maziwa,milk,0.262109375
30,285315.3808999923,5638.909699977376,False,15000,boy,False,True,2591.1022409452667,False,47,ufu,death,0.39921874999999996
31,295455.03189996816,1211.4212000160478,False,15000,boy,False,True,2516.464899542769,False,49,kuku,chicken,0.39960937499999993
32,299849.61239999393,1384.6699999994598,True,15000,king,False,True,2589.9852811578885,False,65,maliki,king,0.30000000000000004
33,304285.12139996747,4229.1399000096135,True,15000,hope,False,True,2424.3418866364655,False,38,tumaini,hope,0.43984375
34,312055.0436999765,2531.920599984005,False,15000,scienceplus,False,True,2408.9253856388286,False,31,kijana,boy,0.3984375
35,317818.75039997976,8295.502600027248,True,15000,death,False,True,2420.4750710108665,False,47,ufu,death,0.43632812499999996
36,329691.0932000028,4943.124899989925,False,15000,hope,False,True,2557.944582466615,False,67,maslahi,interest,0.349609375
37,340078.9115999942,2619.298000005074,False,15000,,True,True,inf,False,69,maumiva,pain,0.3
38,345024.49579996755,1507.4041000334546,True,15000,death,False,True,2317.7916285105953,False,47,ufu,death,0.4117187499999999
39,350781.60379995825,1412.7541000489146,False,15000,interest,False,True,2336.3288334254175,False,69,maumiva,pain,0.3
40,356206.0293999966,3972.1683000097983,True,15000,boy,False,True,2525.851837876831,False,31,kijana,boy,0.398828125
41,363593.71960000135,2852.7340999571607,False,15000,interest,False,True,2569.7272568517515,False,38,tumaini,hope,0.48945312499999993
42,370539.3058999907,2094.870999979321,True,15000,chicken,False,True,2565.156864558599,False,49,kuku,chicken,0.39921874999999996
43,376370.24580000434,2711.8509999709204,False,15000,milk,False,True,2444.4820425517282,False,67,maslahi,interest,0.39921874999999996
44,382205.6859000004,12172.568599984515,True,15000,hope,False,True,2343.358503310123,False,38,tumaini,hope,0.50234375
45,397571.2177999667,3006.9342000060715,False,15000,,True,True,inf,False,33,bibi,grandmother,0.3

trial,start_time,rt,correct,time_bar,keyboard_response,new,on_time,expected_rt,time_bar_visible,fact_id,question,answer,alpha
1,405788.5030999896,4613.697199965827,False,15000.0,,True,True,inf,True,62,dubu,bear,0.3
2,412726.77810001187,1139.3615999841131,True,5508.065364917951,bear,False,True,2088.0326824589756,True,62,dubu,bear,0.3
3,417479.0307999938,2979.12550001638,False,15000.0,,True,True,inf,True,15,askari,police,0.3
4,422781.70110000065,1108.3804999943823,True,5896.970129253867,police,False,True,1949.485064626933,True,15,askari,police,0.3
5,427363.8088000007,7830.280800000764,False,15000.0,,True,True,inf,True,61,lugha,language,0.3
6,437521.3247999782,3976.749000023119,False,15000.0,,True,True,inf,True,46,kofia,hat,0.3
7,443823.89599998714,1058.1245999783278,True,7898.0384736082515,language,False,True,2617.0192368041257,True,61,lugha,language,0.3
8,449163.04839996155,966.9985999935307,True,5775.718258852737,hat,False,True,2388.3591294263683,True,46,kofia,hat,0.3
9,453260.32329996815,3733.782700030133,False,15000.0,,True,True,inf,True,35,tofaa,apple,0.3
10,459323.3754999819,4165.333200013265,False,6033.9370674928505,pain,False,True,2350.9685337464252,True,62,dubu,bear,0.349609375
11,466490.7091999776,6611.56829999527,False,6605.12011691347,,False,False,2470.060058456735,True,35,tofaa,apple,0.3
12,475447.78349995613,978.2436000532471,True,6919.585513436065,police,False,True,2460.7927567180327,True,15,askari,police,0.250390625
13,479842.3802999896,2119.6147999726236,False,15000.0,,True,True,inf,True,6,afisi,office,0.3
14,484290.6173999654,4087.3835000093095,False,15000.0,,True,True,inf,True,59,wingu,cloud,0.3
15,490702.85709999735,1283.1523999921046,True,6688.577858998387,office,False,True,2345.2889294991933,True,6,afisi,office,0.3
16,495321.2968999869,848.6764999688603,True,6374.705253194151,cloud,False,True,2354.8526265970754,True,59,wingu,cloud,0.3
17,500460.42969997507,2029.5427999808453,True,7531.433369740203,language,False,True,2433.7166848701013,True,61,lugha,language,0.250390625
18,506375.74320001295,1050.3046999801882,True,5910.214689141305,hat,False,True,2455.6073445706525,True,46,kofia,hat,0.250390625
19,510363.4180999943,1254.523399984464,True,6283.786930484314,bear,False,True,2475.893465242157,True,62,dubu,bear,0.30000000000000004
20,514902.7004999807,2707.30970002478,False,15000.0,,True,True,inf,True,7,jiwe,stone,0.3
21,519933.478299994,5548.688000009861,False,6472.432422495213,clod,False,True,2403.7162112476067,True,35,tofaa,apple,0.349609375
22,528484.205899993,1189.716499997303,True,6639.35846119198,stone,False,True,2487.17923059599,True,7,jiwe,stone,0.3
23,532860.0166999968,1997.8875999804586,False,15000.0,,True,True,inf,True,26,siri,secret,0.3
24,537181.1106000096,3732.7482999535277,False,15000.0,,True,True,inf,True,12,anga,sky,0.3
25,543241.7749000015,840.1213999604806,False,6633.629318962832,voice,False,True,2317.814659481416,True,26,siri,secret,0.3
26,547175.2717999625,888.3660000283271,True,5588.825490783086,sky,False,True,2294.912745391543,True,12,anga,sky,0.3
27,551586.8046999676,1007.3536999989301,True,7004.146839280714,office,False,True,2503.073419640357,True,6,afisi,office,0.250390625
28,555902.4097999791,1987.4830999760889,False,6662.049585415362,wind,False,True,2498.524792707681,True,59,wingu,cloud,0.349609375
29,560951.2082999572,9570.731200044975,False,15000.0,,True,True,inf,True,48,chapati,bread,0.3
30,572848.0341999675,2289.819700003136,True,6633.2606905854445,apple,False,True,2484.1303452927223,True,35,tofaa,apple,0.34921875
31,578411.44419997,2343.180100026075,True,6981.773564051525,bread,False,True,2658.3867820257624,True,48,chapati,bread,0.3
32,584107.9801999731,6538.603499997407,False,6522.836626840335,,False,False,2428.9183134201676,True,7,jiwe,stone,0.349609375
33,592993.1370000122,inf,True,6734.837147757945,secret,False,True,2368.4185738789724,True,26,siri,secret,0.349609375
34,598847.5359999575,5811.4907999988645,False,5790.397831013627,,False,False,2395.6989155068136,True,12,anga,sky,0.349609375
35,607004.6464999905,997.3855999996886,True,6650.635081213721,cloud,False,True,2492.8175406068603,True,59,wingu,cloud,0.30000000000000004
36,611113.776299986,3136.045799998101,False,15000.0,,True,True,inf,True,54,degaga,glasses,0.3
37,616574.7405999573,1963.075400039088,False,15000.0,,True,True,inf,True,32,tabibu,doctor,0.3
38,620865.2486999636,1080.5658000172116,True,6891.509455051017,glasses,False,True,2280.2547275255083,True,54,degaga,glasses,0.3
39,625531.7803999642,816.1478000110947,True,6458.8181556559,doctor,False,True,2230.40907782795,True,32,tabibu,doctor,0.3
40,631016.8781999964,1440.8389999880455,False,6500.654536855623,skz,False,True,2417.8272684278113,True,7,jiwe,stone,0.39921874999999996
41,635477.8389999992,1115.9500000067055,True,6538.968022794774,bread,False,True,2436.984011397387,True,48,chapati,bread,0.250390625
42,639810.9792000032,1252.0768999820575,True,6818.938226160453,secret,False,True,2410.4691130802266,True,26,siri,secret,0.34921875
43,644780.7522999938,2420.939299976453,True,5813.354851338008,sky,False,True,2407.177425669004,True,12,anga,sky,0.353125
44,650156.12900001,2269.6426999755204,False,15000.0,,True,True,inf,True,22,kazi,work,0.3
45,654750.6580000045,3043.095799977891,False,15000.0,,True,True,inf,True,16,kaputula,pants,0.3
46,660119.7859999957,1081.9361999747343,True,5918.1682551353715,work,False,True,2293.0841275676858,True,22,kazi,work,0.3
47,664410.9640999814,1039.7193999961019,True,6214.36489965042,pants,False,True,2274.68244982521,True,16,kaputula,pants,0.3
48,669006.372999982,3947.9235999751836,True,6557.725557285191,stone,False,True,2446.3627786425955,True,7,jiwe,stone,0.4488281249999999
49,676168.322100013,1873.3241999871098,False,6756.15007810013,hat,False,True,2545.575039050065,True,35,tofaa,apple,0.398828125
50,681186.487799976,2488.5330999968573,False,7339.3619464870135,docto,False,True,2504.1809732435067,True,54,degaga,glasses,0.349609375
51,687004.1611999623,889.2395000439137,True,7046.843295642517,doctor,False,True,2524.4216478212584,True,32,tabibu,doctor,0.250390625
52,691155.8002000093,1349.897499952931,True,6284.897945668106,stone,False,True,2309.948972834053,True,7,jiwe,stone,0.42421874999999987
53,695683.0200999975,1942.7617999608628,False,15000.0,,True,True,inf,True,40,kitanda,bed,0.3
54,699951.0675999918,2594.6750000002794,False,15000.0,,True,True,inf,True,2,pombe,beer,0.3

